experiment_id,participant_id,is_choice_trial,is_attention_check,rt,response,correct_key,correct,trial_number,block_index,old_trial,memorability_bin,encoding_trial,delay,old_side,old_value,left_image_name,left_image_path,left_memorability,left_value,left_is_old,right_image_name,right_image_path,right_memorability,right_value,right_is_old,chosen_side,chosen_image_name,chosen_image_path,chosen_value,reward,repeat_source_was_chosen,response_key,choice_missed,old_chosen,optimal_old_choice,final_bonus
episodic_choice_v3,699ca75f99675d449c667b41,True,,1031.0,k,,,1.0,1.0,0.0,low,,,,,bandage_09s.jpg,../../stimuli/images/bandage_09s.jpg,0.609756,0.0,False,hotplate_12s.jpg,../../stimuli/images/hotplate_12s.jpg,0.581395,0.0,False,right,hotplate_12s.jpg,../../stimuli/images/hotplate_12s.jpg,0.0,0.0,,k,False,,,0.8
episodic_choice_v3,699ca75f99675d449c667b41,True,,925.0,j,,,2.0,1.0,0.0,mid,,,,,dynamite_07s.jpg,../../stimuli/images/dynamite_07s.jpg,0.794872,1.0,False,pinecone_06s.jpg,../../stimuli/images/pinecone_06s.jpg,0.794872,1.0,False,left,dynamite_07s.jpg,../../stimuli/images/dynamite_07s.jpg,1.0,1.0,,j,False,,,0.8
episodic_choice_v3,699ca75f99675d449c667b41,True,,925.0,k,,,3.0,1.0,0.0,high,,,,,grass_05s.jpg,../../stimuli/images/grass_05s.jpg,0.925,1.0,False,beard_11s.jpg,../../stimuli/images/beard_11s.jpg,0.975,1.0,False,right,beard_11s.jpg,../../stimuli/images/beard_11s.jpg,1.0,1.0,,k,False,,,0.8
episodic_choice_v3,699ca75f99675d449c667b41,True,,818.0,j,,,4.0,1.0,0.0,low,,,,,nut_07s.jpg,../../stimuli/images/nut_07s.jpg,0.534884,0.0,False,radish_01b.jpg,../../stimuli/images/radish_01b.jpg,0.6,0.0,False,left,nut_07s.jpg,../../stimuli/images/nut_07s.jpg,0.0,0.0,,j,False,,,0.8
episodic_choice_v3,699ca75f99675d449c667b41,True,,756.0,j,,,5.0,1.0,0.0,high,,,,,springboard_13s.jpg,../../stimuli/images/springboard_13s.jpg,0.976744,1.0,False,parfait_15s.jpg,../../stimuli/images/parfait_15s.jpg,0.973684,1.0,False,left,springboard_13s.jpg,../../stimuli/images/springboard_13s.jpg,1.0,1.0,,j,False,,,0.8
episodic_choice_v3,699ca75f99675d449c667b41,True,,650.0,j,,,6.0,1.0,0.0,mid,,,,,cymbal_06s.jpg,../../stimuli/images/cymbal_06s.jpg,0.8,0.0,False,slipper_06s.jpg,../../stimuli/images/slipper_06s.jpg,0.795455,0.0,False,left,cymbal_06s.jpg,../../stimuli/images/cymbal_06s.jpg,0.0,0.0,,j,False,,,0.8
episodic_choice_v3,699ca75f99675d449c667b41,True,,778.0,k,,,7.0,1.0,0.0,high,,,,,doorknocker_24s.jpg,../../stimuli/images/doorknocker_24s.jpg,0.95,1.0,False,crayon_09s.jpg,../../stimuli/images/crayon_09s.jpg,0.975,1.0,False,right,crayon_09s.jpg,../../stimuli/images/crayon_09s.jpg,1.0,1.0,,k,False,,,0.8
episodic_choice_v3,699ca75f99675d449c667b41,True,,581.0,j,,,8.0,1.0,0.0,mid,,,,,mouth_01b.jpg,../../stimuli/images/mouth_01b.jpg,0.794872,0.0,False,cannonball_05s.jpg,../../stimuli/images/cannonball_05s.jpg,0.794872,0.0,False,left,mouth_01b.jpg,../../stimuli/images/mouth_01b.jpg,0.0,0.0,,j,False,,,0.8
episodic_choice_v3,699ca75f99675d449c667b41,True,,537.0,k,,,9.0,1.0,0.0,low,,,,,outfit_03s.jpg,../../stimuli/images/outfit_03s.jpg,0.512821,0.0,False,sundae_12s.jpg,../../stimuli/images/sundae_12s.jpg,0.634146,0.0,False,right,sundae_12s.jpg,../../stimuli/images/sundae_12s.jpg,0.0,0.0,,k,False,,,0.8
episodic_choice_v3,699ca75f99675d449c667b41,True,,388.0,j,,,10.0,1.0,1.0,high,3.0,7.0,left,1.0,beard_11s.jpg,../../stimuli/images/beard_11s.jpg,0.975,1.0,True,margarita_11s.jpg,../../stimuli/images/margarita_11s.jpg,0.95122,1.0,False,left,beard_11s.jpg,../../stimuli/images/beard_11s.jpg,1.0,1.0,True,j,False,1.0,1.0,0.8
episodic_choice_v3,699ca75f99675d449c667b41,True,,1155.0,j,,,11.0,1.0,0.0,mid,,,,,pocketknife_11s.jpg,../../stimuli/images/pocketknife_11s.jpg,0.794872,1.0,False,spark_plug_04s.jpg,../../stimuli/images/spark_plug_04s.jpg,0.795455,1.0,False,left,pocketknife_11s.jpg,../../stimuli/images/pocketknife_11s.jpg,1.0,1.0,,j,False,,,0.8
episodic_choice_v3,699ca75f99675d449c667b41,True,,732.0,j,,,12.0,1.0,1.0,low,4.0,8.0,right,0.0,milk_07s.jpg,../../stimuli/images/milk_07s.jpg,0.564103,0.0,False,nut_07s.jpg,../../stimuli/images/nut_07s.jpg,0.534884,0.0,True,left,milk_07s.jpg,../../stimuli/images/milk_07s.jpg,0.0,0.0,True,j,False,0.0,1.0,0.8
episodic_choice_v3,699ca75f99675d449c667b41,True,,1448.0,k,,,13.0,1.0,1.0,mid,6.0,7.0,left,0.0,cymbal_06s.jpg,../../stimuli/images/cymbal_06s.jpg,0.8,0.0,True,burner_06s.jpg,../../stimuli/images/burner_06s.jpg,0.794872,0.0,False,right,burner_06s.jpg,../../stimuli/images/burner_06s.jpg,0.0,0.0,True,k,False,0.0,1.0,0.8
episodic_choice_v3,699ca75f99675d449c667b41,True,,,,,,14.0,1.0,0.0,high,,,,,mulberry_03s.jpg,../../stimuli/images/mulberry_03s.jpg,0.97561,0.0,False,leek_02s.jpg,../../stimuli/images/leek_02s.jpg,0.930233,0.0,False,,,,,0.0,,,True,,,0.8
episodic_choice_v3,699ca75f99675d449c667b41,True,,1582.0,j,,,15.0,1.0,1.0,low,1.0,14.0,right,0.0,lemon_05s.jpg,../../stimuli/images/lemon_05s.jpg,0.625,1.0,False,hotplate_12s.jpg,../../stimuli/images/hotplate_12s.jpg,0.581395,0.0,True,left,lemon_05s.jpg,../../stimuli/images/lemon_05s.jpg,1.0,1.0,True,j,False,0.0,1.0,0.8
episodic_choice_v3,699ca75f99675d449c667b41,True,,,,,,16.0,1.0,1.0,high,5.0,11.0,right,1.0,joystick_09s.jpg,../../stimuli/images/joystick_09s.jpg,0.952381,0.0,False,springboard_13s.jpg,../../stimuli/images/springboard_13s.jpg,0.976744,1.0,True,,,,,1.0,True,,True,,,0.8
episodic_choice_v3,699ca75f99675d449c667b41,True,,1185.0,j,,,17.0,1.0,1.0,mid,2.0,15.0,right,1.0,trident_06s.jpg,../../stimuli/images/trident_06s.jpg,0.794872,1.0,False,dynamite_07s.jpg,../../stimuli/images/dynamite_07s.jpg,0.794872,1.0,True,left,trident_06s.jpg,../../stimuli/images/trident_06s.jpg,1.0,1.0,True,j,False,0.0,0.0,0.8
episodic_choice_v3,699ca75f99675d449c667b41,True,,635.0,j,,,18.0,1.0,0.0,low,,,,,groundhog_12n.jpg,../../stimuli/images/groundhog_12n.jpg,0.526316,1.0,False,oven_13s.jpg,../../stimuli/images/oven_13s.jpg,0.585366,1.0,False,left,groundhog_12n.jpg,../../stimuli/images/groundhog_12n.jpg,1.0,1.0,,j,False,,,0.8
episodic_choice_v3,699ca75f99675d449c667b41,True,,646.0,j,,,19.0,1.0,0.0,low,,,,,fountain_pen_09s.jpg,../../stimuli/images/fountain_pen_09s.jpg,0.589744,0.0,False,grape_06s.jpg,../../stimuli/images/grape_06s.jpg,0.625,0.0,False,left,fountain_pen_09s.jpg,../../stimuli/images/fountain_pen_09s.jpg,0.0,0.0,,j,False,,,0.8
episodic_choice_v3,699ca75f99675d449c667b41,True,,1107.0,k,,,20.0,1.0,1.0,mid,11.0,9.0,right,1.0,licorice_08s.jpg,../../stimuli/images/licorice_08s.jpg,0.794872,0.0,False,pocketknife_11s.jpg,../../stimuli/images/pocketknife_11s.jpg,0.794872,1.0,True,right,pocketknife_11s.jpg,../../stimuli/images/pocketknife_11s.jpg,1.0,1.0,True,k,False,1.0,1.0,0.8
episodic_choice_v3,699ca75f99675d449c667b41,True,,924.0,j,,,21.0,1.0,1.0,high,7.0,14.0,right,1.0,screwdriver_08s.jpg,../../stimuli/images/screwdriver_08s.jpg,0.95122,1.0,False,crayon_09s.jpg,../../stimuli/images/crayon_09s.jpg,0.975,1.0,True,left,screwdriver_08s.jpg,../../stimuli/images/screwdriver_08s.jpg,1.0,1.0,True,j,False,0.0,0.0,0.8
episodic_choice_v3,699ca75f99675d449c667b41,True,,,,,,22.0,1.0,1.0,mid,8.0,14.0,left,0.0,mouth_01b.jpg,../../stimuli/images/mouth_01b.jpg,0.794872,0.0,True,flipper_10s.jpg,../../stimuli/images/flipper_10s.jpg,0.794872,1.0,False,,,,,1.0,True,,True,,,0.8
episodic_choice_v3,699ca75f99675d449c667b41,True,,,,,,23.0,1.0,1.0,high,14.0,9.0,left,0.0,mulberry_03s.jpg,../../stimuli/images/mulberry_03s.jpg,0.97561,0.0,True,fudge_02s.jpg,../../stimuli/images/fudge_02s.jpg,0.95,0.0,False,,,,,0.0,True,,True,,,0.8
episodic_choice_v3,699ca75f99675d449c667b41,True,,,,,,24.0,1.0,1.0,low,9.0,15.0,left,0.0,sundae_12s.jpg,../../stimuli/images/sundae_12s.jpg,0.634146,0.0,True,jukebox_05s.jpg,../../stimuli/images/jukebox_05s.jpg,0.525,1.0,False,,,,,0.0,True,,True,,,0.8
episodic_choice_v3,699ca75f99675d449c667b41,True,,540.0,k,,,25.0,1.0,0.0,mid,,,,,pitchfork_01b.jpg,../../stimuli/images/pitchfork_01b.jpg,0.795455,0.0,False,dandelion_01s.jpg,../../stimuli/images/dandelion_01s.jpg,0.794872,0.0,False,right,dandelion_01s.jpg,../../stimuli/images/dandelion_01s.jpg,0.0,0.0,,k,False,,,0.8
episodic_choice_v3,699ca75f99675d449c667b41,True,,1111.0,j,,,26.0,1.0,1.0,low,18.0,8.0,right,1.0,scooter_02s.jpg,../../stimuli/images/scooter_02s.jpg,0.525,1.0,False,groundhog_12n.jpg,../../stimuli/images/groundhog_12n.jpg,0.526316,1.0,True,left,scooter_02s.jpg,../../stimuli/images/scooter_02s.jpg,1.0,1.0,True,j,False,0.0,0.0,0.8
episodic_choice_v3,699ca75f99675d449c667b41,True,,784.0,j,,,27.0,1.0,0.0,high,,,,,test_tube_01b.jpg,../../stimuli/images/test_tube_01b.jpg,0.973684,1.0,False,cornucopia_11s.jpg,../../stimuli/images/cornucopia_11s.jpg,0.925,1.0,False,left,test_tube_01b.jpg,../../stimuli/images/test_tube_01b.jpg,1.0,1.0,,j,False,,,0.8
episodic_choice_v3,699ca75f99675d449c667b41,True,,796.0,j,,,28.0,1.0,0.0,low,,,,,anvil_13n.jpg,../../stimuli/images/anvil_13n.jpg,0.553306,1.0,False,webcam_03s.jpg,../../stimuli/images/webcam_03s.jpg,0.461538,1.0,False,left,anvil_13n.jpg,../../stimuli/images/anvil_13n.jpg,1.0,1.0,,j,False,,,0.8
episodic_choice_v3,699ca75f99675d449c667b41,True,,1085.0,k,,,29.0,1.0,0.0,mid,,,,,yak_09s.jpg,../../stimuli/images/yak_09s.jpg,0.794872,0.0,False,foot_01b.jpg,../../stimuli/images/foot_01b.jpg,0.8,0.0,False,right,foot_01b.jpg,../../stimuli/images/foot_01b.jpg,0.0,0.0,,k,False,,,0.8
episodic_choice_v3,699ca75f99675d449c667b41,True,,695.0,j,,,30.0,1.0,0.0,high,,,,,throne_08s.jpg,../../stimuli/images/throne_08s.jpg,0.948718,0.0,False,chainsaw_05s.jpg,../../stimuli/images/chainsaw_05s.jpg,0.928571,0.0,False,left,throne_08s.jpg,../../stimuli/images/throne_08s.jpg,0.0,0.0,,j,False,,,0.8
episodic_choice_v3,699ca75f99675d449c667b41,True,,681.0,j,,,31.0,1.0,0.0,high,,,,,ice_cream_06s.jpg,../../stimuli/images/ice_cream_06s.jpg,0.95122,1.0,False,apple_01b.jpg,../../stimuli/images/apple_01b.jpg,0.952381,1.0,False,left,ice_cream_06s.jpg,../../stimuli/images/ice_cream_06s.jpg,1.0,1.0,,j,False,,,0.8
episodic_choice_v3,699ca75f99675d449c667b41,True,,543.0,j,,,32.0,1.0,1.0,low,19.0,13.0,right,0.0,banjo_16s.jpg,../../stimuli/images/banjo_16s.jpg,0.55,1.0,False,fountain_pen_09s.jpg,../../stimuli/images/fountain_pen_09s.jpg,0.589744,0.0,True,left,banjo_16s.jpg,../../stimuli/images/banjo_16s.jpg,1.0,1.0,True,j,False,0.0,1.0,0.8
episodic_choice_v3,699ca75f99675d449c667b41,True,,628.0,j,,,33.0,1.0,1.0,mid,25.0,8.0,left,0.0,dandelion_01s.jpg,../../stimuli/images/dandelion_01s.jpg,0.794872,0.0,True,stretcher_04s.jpg,../../stimuli/images/stretcher_04s.jpg,0.794872,1.0,False,left,dandelion_01s.jpg,../../stimuli/images/dandelion_01s.jpg,0.0,0.0,True,j,False,1.0,0.0,0.8
episodic_choice_v3,699ca75f99675d449c667b41,True,,402.0,k,,,34.0,1.0,0.0,mid,,,,,chandelier_07s.jpg,../../stimuli/images/chandelier_07s.jpg,0.794872,1.0,False,trombone_14s.jpg,../../stimuli/images/trombone_14s.jpg,0.794872,1.0,False,right,trombone_14s.jpg,../../stimuli/images/trombone_14s.jpg,1.0,1.0,,k,False,,,0.8
episodic_choice_v3,699ca75f99675d449c667b41,True,,762.0,j,,,35.0,1.0,0.0,low,,,,,soldering_iron_08s.jpg,../../stimuli/images/soldering_iron_08s.jpg,0.452381,0.0,False,coral_07s.jpg,../../stimuli/images/coral_07s.jpg,0.512195,0.0,False,left,soldering_iron_08s.jpg,../../stimuli/images/soldering_iron_08s.jpg,0.0,0.0,,j,False,,,0.8
episodic_choice_v3,699ca75f99675d449c667b41,True,,774.0,k,,,36.0,1.0,0.0,high,,,,,inhaler_04s.jpg,../../stimuli/images/inhaler_04s.jpg,0.95,1.0,False,cantaloupe_09s.jpg,../../stimuli/images/cantaloupe_09s.jpg,0.952381,1.0,False,right,cantaloupe_09s.jpg,../../stimuli/images/cantaloupe_09s.jpg,1.0,1.0,,k,False,,,0.8
episodic_choice_v3,699ca75f99675d449c667b41,True,,,,,,37.0,1.0,1.0,mid,29.0,8.0,right,0.0,crepe_16s.jpg,../../stimuli/images/crepe_16s.jpg,0.794872,0.0,False,foot_01b.jpg,../../stimuli/images/foot_01b.jpg,0.8,0.0,True,,,,,0.0,True,,True,,,0.8
episodic_choice_v3,699ca75f99675d449c667b41,True,,1965.0,j,,,38.0,1.0,1.0,high,30.0,8.0,left,0.0,throne_08s.jpg,../../stimuli/images/throne_08s.jpg,0.948718,0.0,True,potato_07s.jpg,../../stimuli/images/potato_07s.jpg,0.95122,0.0,False,left,throne_08s.jpg,../../stimuli/images/throne_08s.jpg,0.0,0.0,True,j,False,1.0,0.0,0.8
episodic_choice_v3,699ca75f99675d449c667b41,True,,523.0,j,,,39.0,1.0,0.0,low,,,,,eyedropper_05s.jpg,../../stimuli/images/eyedropper_05s.jpg,0.609756,1.0,False,bulldozer_06s.jpg,../../stimuli/images/bulldozer_06s.jpg,0.536585,1.0,False,left,eyedropper_05s.jpg,../../stimuli/images/eyedropper_05s.jpg,1.0,1.0,,j,False,,,0.8
episodic_choice_v3,699ca75f99675d449c667b41,True,,742.0,j,,,40.0,1.0,1.0,high,27.0,13.0,right,1.0,cocktail_01b.jpg,../../stimuli/images/cocktail_01b.jpg,0.923077,1.0,False,test_tube_01b.jpg,../../stimuli/images/test_tube_01b.jpg,0.973684,1.0,True,left,cocktail_01b.jpg,../../stimuli/images/cocktail_01b.jpg,1.0,1.0,True,j,False,0.0,0.0,0.8
episodic_choice_v3,699ca75f99675d449c667b41,True,,1296.0,j,,,41.0,1.0,1.0,mid,34.0,7.0,right,1.0,triangle_10s.jpg,../../stimuli/images/triangle_10s.jpg,0.8,0.0,False,trombone_14s.jpg,../../stimuli/images/trombone_14s.jpg,0.794872,1.0,True,left,triangle_10s.jpg,../../stimuli/images/triangle_10s.jpg,0.0,0.0,True,j,False,0.0,0.0,0.8
episodic_choice_v3,699ca75f99675d449c667b41,True,,1366.0,k,,,42.0,1.0,1.0,low,28.0,14.0,left,1.0,anvil_13n.jpg,../../stimuli/images/anvil_13n.jpg,0.553306,1.0,True,screen1_03s.jpg,../../stimuli/images/screen1_03s.jpg,0.538462,0.0,False,right,screen1_03s.jpg,../../stimuli/images/screen1_03s.jpg,0.0,0.0,True,k,False,0.0,0.0,0.8
episodic_choice_v3,699ca75f99675d449c667b41,True,,656.0,j,,,43.0,1.0,1.0,high,31.0,12.0,left,1.0,ice_cream_06s.jpg,../../stimuli/images/ice_cream_06s.jpg,0.95122,1.0,True,visor_08s.jpg,../../stimuli/images/visor_08s.jpg,0.97561,0.0,False,left,ice_cream_06s.jpg,../../stimuli/images/ice_cream_06s.jpg,1.0,1.0,True,j,False,1.0,1.0,0.8
episodic_choice_v3,699ca75f99675d449c667b41,True,,790.0,k,,,44.0,1.0,1.0,low,35.0,9.0,right,0.0,sawhorse_02s.jpg,../../stimuli/images/sawhorse_02s.jpg,0.536585,1.0,False,soldering_iron_08s.jpg,../../stimuli/images/soldering_iron_08s.jpg,0.452381,0.0,True,right,soldering_iron_08s.jpg,../../stimuli/images/soldering_iron_08s.jpg,0.0,0.0,True,k,False,1.0,0.0,0.8
episodic_choice_v3,699ca75f99675d449c667b41,True,,451.0,j,,,45.0,1.0,0.0,mid,,,,,counter_07s.jpg,../../stimuli/images/counter_07s.jpg,0.794872,0.0,False,shredder_14s.jpg,../../stimuli/images/shredder_14s.jpg,0.794872,0.0,False,left,counter_07s.jpg,../../stimuli/images/counter_07s.jpg,0.0,0.0,,j,False,,,0.8
episodic_choice_v3,699ca75f99675d449c667b41,True,,,,,,46.0,1.0,1.0,low,39.0,7.0,left,1.0,eyedropper_05s.jpg,../../stimuli/images/eyedropper_05s.jpg,0.609756,1.0,True,seaweed_05s.jpg,../../stimuli/images/seaweed_05s.jpg,0.487805,1.0,False,,,,,1.0,True,,True,,,0.8
episodic_choice_v3,699ca75f99675d449c667b41,,True,2023.0,j,r,False,,,,,,,,,,,,,,,,,,,,,,,,,j,,,,0.8
episodic_choice_v3,699ca75f99675d449c667b41,True,,,,,,47.0,1.0,0.0,high,,,,,sunroof_01b.jpg,../../stimuli/images/sunroof_01b.jpg,0.9,0.0,False,piglet_02s.jpg,../../stimuli/images/piglet_02s.jpg,0.974359,0.0,False,,,,,0.0,,,True,,,0.8
episodic_choice_v3,699ca75f99675d449c667b41,True,,525.0,k,,,48.0,1.0,0.0,mid,,,,,lemonade_05s.jpg,../../stimuli/images/lemonade_05s.jpg,0.804878,1.0,False,dreidel_10s.jpg,../../stimuli/images/dreidel_10s.jpg,0.794872,1.0,False,right,dreidel_10s.jpg,../../stimuli/images/dreidel_10s.jpg,1.0,1.0,,k,False,,,0.8
episodic_choice_v3,699ca75f99675d449c667b41,True,,519.0,j,,,49.0,1.0,1.0,high,36.0,13.0,right,1.0,puffin_18s.jpg,../../stimuli/images/puffin_18s.jpg,0.948718,1.0,False,cantaloupe_09s.jpg,../../stimuli/images/cantaloupe_09s.jpg,0.952381,1.0,True,left,puffin_18s.jpg,../../stimuli/images/puffin_18s.jpg,1.0,1.0,True,j,False,0.0,0.0,0.8
episodic_choice_v3,699ca75f99675d449c667b41,True,,401.0,k,,,50.0,1.0,0.0,mid,,,,,bracelet2_08s.jpg,../../stimuli/images/bracelet2_08s.jpg,0.794872,0.0,False,corn_17s.jpg,../../stimuli/images/corn_17s.jpg,0.794872,0.0,False,right,corn_17s.jpg,../../stimuli/images/corn_17s.jpg,0.0,0.0,,k,False,,,0.8
episodic_choice_v3,699ca75f99675d449c667b41,True,,652.0,j,,,51.0,1.0,0.0,low,,,,,cabinet_11s.jpg,../../stimuli/images/cabinet_11s.jpg,0.55,1.0,False,basketball_hoop_11s.jpg,../../stimuli/images/basketball_hoop_11s.jpg,0.439024,1.0,False,left,cabinet_11s.jpg,../../stimuli/images/cabinet_11s.jpg,1.0,1.0,,j,False,,,0.8
episodic_choice_v3,699ca75f99675d449c667b41,True,,342.0,j,,,52.0,1.0,0.0,mid,,,,,hatbox_11s.jpg,../../stimuli/images/hatbox_11s.jpg,0.794872,0.0,False,duckling_03s.jpg,../../stimuli/images/duckling_03s.jpg,0.794872,0.0,False,left,hatbox_11s.jpg,../../stimuli/images/hatbox_11s.jpg,0.0,0.0,,j,False,,,0.8
episodic_choice_v3,699ca75f99675d449c667b41,True,,,,,,53.0,1.0,0.0,low,,,,,bug_04s.jpg,../../stimuli/images/bug_04s.jpg,0.55,0.0,False,scanner_01b.jpg,../../stimuli/images/scanner_01b.jpg,0.55,0.0,False,,,,,0.0,,,True,,,0.8
episodic_choice_v3,699ca75f99675d449c667b41,True,,726.0,j,,,54.0,1.0,1.0,high,47.0,7.0,right,0.0,pancake_11s.jpg,../../stimuli/images/pancake_11s.jpg,0.97561,0.0,False,sunroof_01b.jpg,../../stimuli/images/sunroof_01b.jpg,0.9,0.0,True,left,pancake_11s.jpg,../../stimuli/images/pancake_11s.jpg,0.0,0.0,True,j,False,0.0,1.0,0.8
episodic_choice_v3,699ca75f99675d449c667b41,True,,,,,,55.0,1.0,0.0,low,,,,,sweater_02s.jpg,../../stimuli/images/sweater_02s.jpg,0.538462,1.0,False,oilcan_08s.jpg,../../stimuli/images/oilcan_08s.jpg,0.477273,1.0,False,,,,,1.0,,,True,,,0.8
episodic_choice_v3,699ca75f99675d449c667b41,True,,604.0,k,,,56.0,1.0,0.0,high,,,,,skateboard_01b.jpg,../../stimuli/images/skateboard_01b.jpg,0.930233,0.0,False,cello_11s.jpg,../../stimuli/images/cello_11s.jpg,0.926829,0.0,False,right,cello_11s.jpg,../../stimuli/images/cello_11s.jpg,0.0,0.0,,k,False,,,0.8
episodic_choice_v3,699ca75f99675d449c667b41,True,,278.0,j,,,57.0,1.0,1.0,mid,45.0,12.0,right,0.0,gazelle_07s.jpg,../../stimuli/images/gazelle_07s.jpg,0.795455,1.0,False,counter_07s.jpg,../../stimuli/images/counter_07s.jpg,0.794872,0.0,True,left,gazelle_07s.jpg,../../stimuli/images/gazelle_07s.jpg,1.0,1.0,True,j,False,0.0,1.0,0.8
episodic_choice_v3,699ca75f99675d449c667b41,True,,477.0,j,,,58.0,1.0,0.0,high,,,,,peeler_10s.jpg,../../stimuli/images/peeler_10s.jpg,0.928571,0.0,False,brace_02s.jpg,../../stimuli/images/brace_02s.jpg,0.95122,0.0,False,left,peeler_10s.jpg,../../stimuli/images/peeler_10s.jpg,0.0,0.0,,j,False,,,0.8
episodic_choice_v3,699ca75f99675d449c667b41,True,,289.0,k,,,59.0,1.0,0.0,low,,,,,music_box_06s.jpg,../../stimuli/images/music_box_06s.jpg,0.575,0.0,False,amplifier_11s.jpg,../../stimuli/images/amplifier_11s.jpg,0.55,0.0,False,right,amplifier_11s.jpg,../../stimuli/images/amplifier_11s.jpg,0.0,0.0,,k,False,,,0.8
episodic_choice_v3,699ca75f99675d449c667b41,True,,470.0,j,,,60.0,1.0,1.0,mid,50.0,10.0,left,0.0,corn_17s.jpg,../../stimuli/images/corn_17s.jpg,0.794872,0.0,True,scarecrow_11s.jpg,../../stimuli/images/scarecrow_11s.jpg,0.794872,0.0,False,left,corn_17s.jpg,../../stimuli/images/corn_17s.jpg,0.0,0.0,True,j,False,1.0,0.0,0.8
episodic_choice_v3,699ca75f99675d449c667b41,True,,498.0,k,,,61.0,1.0,0.0,high,,,,,tongs_03s.jpg,../../stimuli/images/tongs_03s.jpg,0.947368,0.0,False,doll_03s.jpg,../../stimuli/images/doll_03s.jpg,0.95122,0.0,False,right,doll_03s.jpg,../../stimuli/images/doll_03s.jpg,0.0,0.0,,k,False,,,0.8
episodic_choice_v3,699ca75f99675d449c667b41,True,,493.0,j,,,62.0,1.0,1.0,low,53.0,9.0,right,0.0,coat_10s.jpg,../../stimuli/images/coat_10s.jpg,0.564103,1.0,False,scanner_01b.jpg,../../stimuli/images/scanner_01b.jpg,0.55,0.0,True,left,coat_10s.jpg,../../stimuli/images/coat_10s.jpg,1.0,1.0,True,j,False,0.0,1.0,0.8
episodic_choice_v3,699ca75f99675d449c667b41,True,,836.0,j,,,63.0,1.0,1.0,mid,48.0,15.0,right,1.0,machete_12s.jpg,../../stimuli/images/machete_12s.jpg,0.794872,0.0,False,dreidel_10s.jpg,../../stimuli/images/dreidel_10s.jpg,0.794872,1.0,True,left,machete_12s.jpg,../../stimuli/images/machete_12s.jpg,0.0,0.0,True,j,False,0.0,0.0,0.8
episodic_choice_v3,699ca75f99675d449c667b41,True,,533.0,k,,,64.0,1.0,1.0,low,51.0,13.0,left,1.0,cabinet_11s.jpg,../../stimuli/images/cabinet_11s.jpg,0.55,1.0,True,centerpiece_13s.jpg,../../stimuli/images/centerpiece_13s.jpg,0.487179,1.0,False,right,centerpiece_13s.jpg,../../stimuli/images/centerpiece_13s.jpg,1.0,1.0,True,k,False,0.0,0.0,0.8
episodic_choice_v3,699ca75f99675d449c667b41,True,,811.0,j,,,65.0,1.0,0.0,high,,,,,grenade_06s.jpg,../../stimuli/images/grenade_06s.jpg,0.95122,1.0,False,keyboard_11s.jpg,../../stimuli/images/keyboard_11s.jpg,0.928571,1.0,False,left,grenade_06s.jpg,../../stimuli/images/grenade_06s.jpg,1.0,1.0,,j,False,,,0.8
episodic_choice_v3,699ca75f99675d449c667b41,True,,1088.0,k,,,66.0,1.0,1.0,mid,52.0,14.0,left,0.0,hatbox_11s.jpg,../../stimuli/images/hatbox_11s.jpg,0.794872,0.0,True,pepper_mill_06s.jpg,../../stimuli/images/pepper_mill_06s.jpg,0.795455,1.0,False,right,pepper_mill_06s.jpg,../../stimuli/images/pepper_mill_06s.jpg,1.0,1.0,True,k,False,0.0,1.0,0.8
episodic_choice_v3,699ca75f99675d449c667b41,True,,426.0,j,,,67.0,1.0,1.0,low,55.0,12.0,right,1.0,noisemaker_09s.jpg,../../stimuli/images/noisemaker_09s.jpg,0.575,0.0,False,sweater_02s.jpg,../../stimuli/images/sweater_02s.jpg,0.538462,1.0,True,left,noisemaker_09s.jpg,../../stimuli/images/noisemaker_09s.jpg,0.0,0.0,True,j,False,0.0,0.0,0.8
episodic_choice_v3,699ca75f99675d449c667b41,True,,332.0,k,,,68.0,1.0,1.0,high,58.0,10.0,right,0.0,hot-air_balloon_03s.jpg,../../stimuli/images/hot-air_balloon_03s.jpg,0.947368,0.0,False,peeler_10s.jpg,../../stimuli/images/peeler_10s.jpg,0.928571,0.0,True,right,peeler_10s.jpg,../../stimuli/images/peeler_10s.jpg,0.0,0.0,True,k,False,1.0,0.0,0.8
episodic_choice_v3,699ca75f99675d449c667b41,True,,1640.0,j,,,69.0,1.0,0.0,mid,,,,,strawberry_15n.jpg,../../stimuli/images/strawberry_15n.jpg,0.794872,0.0,False,donut_05s.jpg,../../stimuli/images/donut_05s.jpg,0.794872,0.0,False,left,strawberry_15n.jpg,../../stimuli/images/strawberry_15n.jpg,0.0,0.0,,j,False,,,0.8
episodic_choice_v3,699ca75f99675d449c667b41,True,,1333.0,j,,,70.0,1.0,1.0,high,56.0,14.0,right,0.0,whoopee_cushion_10s.jpg,../../stimuli/images/whoopee_cushion_10s.jpg,0.954545,0.0,False,cello_11s.jpg,../../stimuli/images/cello_11s.jpg,0.926829,0.0,True,left,whoopee_cushion_10s.jpg,../../stimuli/images/whoopee_cushion_10s.jpg,0.0,0.0,True,j,False,0.0,1.0,0.8
episodic_choice_v3,699ca75f99675d449c667b41,True,,1825.0,j,,,71.0,1.0,0.0,mid,,,,,slicer_08s.jpg,../../stimuli/images/slicer_08s.jpg,0.795455,0.0,False,skull_10s.jpg,../../stimuli/images/skull_10s.jpg,0.8,0.0,False,left,slicer_08s.jpg,../../stimuli/images/slicer_08s.jpg,0.0,0.0,,j,False,,,0.8
episodic_choice_v3,699ca75f99675d449c667b41,True,,422.0,k,,,72.0,1.0,1.0,low,59.0,13.0,right,0.0,notebook_06s.jpg,../../stimuli/images/notebook_06s.jpg,0.585366,1.0,False,amplifier_11s.jpg,../../stimuli/images/amplifier_11s.jpg,0.55,0.0,True,right,amplifier_11s.jpg,../../stimuli/images/amplifier_11s.jpg,0.0,0.0,True,k,False,1.0,0.0,0.8
episodic_choice_v3,699ca75f99675d449c667b41,True,,397.0,j,,,73.0,1.0,0.0,mid,,,,,television_12s.jpg,../../stimuli/images/television_12s.jpg,0.794872,0.0,False,cake_mix_11s.jpg,../../stimuli/images/cake_mix_11s.jpg,0.794872,0.0,False,left,television_12s.jpg,../../stimuli/images/television_12s.jpg,0.0,0.0,,j,False,,,0.8
episodic_choice_v3,699ca75f99675d449c667b41,True,,195.0,k,,,74.0,1.0,1.0,high,61.0,13.0,left,0.0,doll_03s.jpg,../../stimuli/images/doll_03s.jpg,0.95122,0.0,True,panther_01b.jpg,../../stimuli/images/panther_01b.jpg,0.975,1.0,False,right,panther_01b.jpg,../../stimuli/images/panther_01b.jpg,1.0,1.0,True,k,False,0.0,1.0,0.8
episodic_choice_v3,699ca75f99675d449c667b41,True,,510.0,j,,,75.0,1.0,0.0,low,,,,,funnel_12s.jpg,../../stimuli/images/funnel_12s.jpg,0.609756,1.0,False,cane_06n.jpg,../../stimuli/images/cane_06n.jpg,0.634146,1.0,False,left,funnel_12s.jpg,../../stimuli/images/funnel_12s.jpg,1.0,1.0,,j,False,,,0.8
episodic_choice_v3,699ca75f99675d449c667b41,True,,961.0,j,,,76.0,1.0,1.0,mid,69.0,7.0,right,0.0,statue_13s.jpg,../../stimuli/images/statue_13s.jpg,0.794872,1.0,False,strawberry_15n.jpg,../../stimuli/images/strawberry_15n.jpg,0.794872,0.0,True,left,statue_13s.jpg,../../stimuli/images/statue_13s.jpg,1.0,1.0,True,j,False,0.0,1.0,0.8
episodic_choice_v3,699ca75f99675d449c667b41,True,,405.0,j,,,77.0,1.0,0.0,low,,,,,candlestick_10s.jpg,../../stimuli/images/candlestick_10s.jpg,0.525,0.0,False,asparagus_09s.jpg,../../stimuli/images/asparagus_09s.jpg,0.604651,0.0,False,left,candlestick_10s.jpg,../../stimuli/images/candlestick_10s.jpg,0.0,0.0,,j,False,,,0.8
episodic_choice_v3,699ca75f99675d449c667b41,True,,407.0,k,,,78.0,1.0,1.0,high,65.0,13.0,right,1.0,brass_knuckles_04s.jpg,../../stimuli/images/brass_knuckles_04s.jpg,0.975,0.0,False,grenade_06s.jpg,../../stimuli/images/grenade_06s.jpg,0.95122,1.0,True,right,grenade_06s.jpg,../../stimuli/images/grenade_06s.jpg,1.0,1.0,True,k,False,1.0,1.0,0.8
episodic_choice_v3,699ca75f99675d449c667b41,True,,304.0,j,,,79.0,1.0,0.0,low,,,,,rearview_mirror_11s.jpg,../../stimuli/images/rearview_mirror_11s.jpg,0.410256,1.0,False,rose_11s.jpg,../../stimuli/images/rose_11s.jpg,0.512821,1.0,False,left,rearview_mirror_11s.jpg,../../stimuli/images/rearview_mirror_11s.jpg,1.0,1.0,,j,False,,,0.8
episodic_choice_v3,699ca75f99675d449c667b41,True,,330.0,j,,,80.0,1.0,0.0,high,,,,,belt_09s.jpg,../../stimuli/images/belt_09s.jpg,0.95,0.0,False,juice_01b.jpg,../../stimuli/images/juice_01b.jpg,0.928571,0.0,False,left,belt_09s.jpg,../../stimuli/images/belt_09s.jpg,0.0,0.0,,j,False,,,0.8
episodic_choice_v3,699ca75f99675d449c667b41,True,,302.0,k,,,81.0,1.0,1.0,mid,71.0,10.0,right,0.0,pen_08s.jpg,../../stimuli/images/pen_08s.jpg,0.794872,0.0,False,slicer_08s.jpg,../../stimuli/images/slicer_08s.jpg,0.795455,0.0,True,right,slicer_08s.jpg,../../stimuli/images/slicer_08s.jpg,0.0,0.0,True,k,False,1.0,0.0,0.8
episodic_choice_v3,699ca75f99675d449c667b41,True,,13.0,j,,,82.0,1.0,0.0,high,,,,,headband_02s.jpg,../../stimuli/images/headband_02s.jpg,0.97561,0.0,False,eye_patch_09s.jpg,../../stimuli/images/eye_patch_09s.jpg,0.95122,0.0,False,left,headband_02s.jpg,../../stimuli/images/headband_02s.jpg,0.0,0.0,,j,False,,,0.8
episodic_choice_v3,699ca75f99675d449c667b41,True,,490.0,j,,,83.0,1.0,0.0,low,,,,,creme_brulee_04s.jpg,../../stimuli/images/creme_brulee_04s.jpg,0.625,1.0,False,mattress_07s.jpg,../../stimuli/images/mattress_07s.jpg,0.578947,1.0,False,left,creme_brulee_04s.jpg,../../stimuli/images/creme_brulee_04s.jpg,1.0,1.0,,j,False,,,0.8
episodic_choice_v3,699ca75f99675d449c667b41,True,,614.0,k,,,84.0,1.0,0.0,mid,,,,,frame_03s.jpg,../../stimuli/images/frame_03s.jpg,0.794872,0.0,False,balloon_14s.jpg,../../stimuli/images/balloon_14s.jpg,0.794872,0.0,False,right,balloon_14s.jpg,../../stimuli/images/balloon_14s.jpg,0.0,0.0,,k,False,,,0.8
episodic_choice_v3,699ca75f99675d449c667b41,True,,378.0,j,,,85.0,1.0,0.0,high,,,,,eclair_04s.jpg,../../stimuli/images/eclair_04s.jpg,0.975,1.0,False,license_plate_03s.jpg,../../stimuli/images/license_plate_03s.jpg,0.97561,1.0,False,left,eclair_04s.jpg,../../stimuli/images/eclair_04s.jpg,1.0,1.0,,j,False,,,0.8
episodic_choice_v3,699ca75f99675d449c667b41,True,,791.0,k,,,86.0,1.0,1.0,low,77.0,9.0,left,0.0,candlestick_10s.jpg,../../stimuli/images/candlestick_10s.jpg,0.525,0.0,True,yacht_08s.jpg,../../stimuli/images/yacht_08s.jpg,0.5,0.0,False,right,yacht_08s.jpg,../../stimuli/images/yacht_08s.jpg,0.0,0.0,True,k,False,0.0,1.0,0.8
episodic_choice_v3,699ca75f99675d449c667b41,True,,481.0,j,,,87.0,1.0,1.0,mid,73.0,14.0,left,0.0,television_12s.jpg,../../stimuli/images/television_12s.jpg,0.794872,0.0,True,freezer_04s.jpg,../../stimuli/images/freezer_04s.jpg,0.789474,1.0,False,left,television_12s.jpg,../../stimuli/images/television_12s.jpg,0.0,0.0,True,j,False,1.0,0.0,0.8
episodic_choice_v3,699ca75f99675d449c667b41,True,,645.0,k,,,88.0,1.0,0.0,mid,,,,,smoothie_08s.jpg,../../stimuli/images/smoothie_08s.jpg,0.789474,0.0,False,button1_08s.jpg,../../stimuli/images/button1_08s.jpg,0.794872,0.0,False,right,button1_08s.jpg,../../stimuli/images/button1_08s.jpg,0.0,0.0,,k,False,,,0.8
episodic_choice_v3,699ca75f99675d449c667b41,True,,,,,,89.0,1.0,1.0,low,75.0,14.0,left,1.0,funnel_12s.jpg,../../stimuli/images/funnel_12s.jpg,0.609756,1.0,True,bat2_12s.jpg,../../stimuli/images/bat2_12s.jpg,0.55,0.0,False,,,,,1.0,True,,True,,,0.8
episodic_choice_v3,699ca75f99675d449c667b41,True,,369.0,j,,,90.0,1.0,0.0,high,,,,,backscratcher_16s.jpg,../../stimuli/images/backscratcher_16s.jpg,0.95,0.0,False,binder_21s.jpg,../../stimuli/images/binder_21s.jpg,0.974359,0.0,False,left,backscratcher_16s.jpg,../../stimuli/images/backscratcher_16s.jpg,0.0,0.0,,j,False,,,0.8
episodic_choice_v3,699ca75f99675d449c667b41,True,,1781.0,j,,,91.0,1.0,1.0,mid,84.0,7.0,left,0.0,balloon_14s.jpg,../../stimuli/images/balloon_14s.jpg,0.794872,0.0,True,cloak_13s.jpg,../../stimuli/images/cloak_13s.jpg,0.795455,1.0,False,left,balloon_14s.jpg,../../stimuli/images/balloon_14s.jpg,0.0,0.0,True,j,False,1.0,0.0,0.8
episodic_choice_v3,699ca75f99675d449c667b41,True,,333.0,k,,,92.0,1.0,1.0,high,80.0,12.0,right,0.0,swan_01b.jpg,../../stimuli/images/swan_01b.jpg,0.925,0.0,False,belt_09s.jpg,../../stimuli/images/belt_09s.jpg,0.95,0.0,True,right,belt_09s.jpg,../../stimuli/images/belt_09s.jpg,0.0,0.0,True,k,False,1.0,0.0,0.8
episodic_choice_v3,699ca75f99675d449c667b41,True,,373.0,j,,,93.0,1.0,1.0,low,79.0,14.0,left,1.0,rearview_mirror_11s.jpg,../../stimuli/images/rearview_mirror_11s.jpg,0.410256,1.0,True,weed_10s.jpg,../../stimuli/images/weed_10s.jpg,0.512195,0.0,False,left,rearview_mirror_11s.jpg,../../stimuli/images/rearview_mirror_11s.jpg,1.0,1.0,True,j,False,1.0,1.0,0.8
episodic_choice_v3,699ca75f99675d449c667b41,True,,599.0,j,,,94.0,1.0,1.0,low,83.0,11.0,left,1.0,creme_brulee_04s.jpg,../../stimuli/images/creme_brulee_04s.jpg,0.625,1.0,True,cranberry_03n.jpg,../../stimuli/images/cranberry_03n.jpg,0.566026,1.0,False,left,creme_brulee_04s.jpg,../../stimuli/images/creme_brulee_04s.jpg,1.0,1.0,True,j,False,1.0,1.0,0.8
episodic_choice_v3,699ca75f99675d449c667b41,True,,357.0,j,,,95.0,1.0,1.0,mid,88.0,7.0,right,0.0,rocking_chair_07s.jpg,../../stimuli/images/rocking_chair_07s.jpg,0.794872,1.0,False,button1_08s.jpg,../../stimuli/images/button1_08s.jpg,0.794872,0.0,True,left,rocking_chair_07s.jpg,../../stimuli/images/rocking_chair_07s.jpg,1.0,1.0,True,j,False,0.0,1.0,0.8
episodic_choice_v3,699ca75f99675d449c667b41,True,,373.0,k,,,96.0,1.0,1.0,high,82.0,14.0,left,0.0,headband_02s.jpg,../../stimuli/images/headband_02s.jpg,0.97561,0.0,True,tapestry_04s.jpg,../../stimuli/images/tapestry_04s.jpg,0.923077,1.0,False,right,tapestry_04s.jpg,../../stimuli/images/tapestry_04s.jpg,1.0,1.0,True,k,False,0.0,1.0,0.8
episodic_choice_v3,699ca75f99675d449c667b41,True,,824.0,j,,,97.0,1.0,0.0,low,,,,,belt_buckle_13s.jpg,../../stimuli/images/belt_buckle_13s.jpg,0.6,0.0,False,clarinet_13s.jpg,../../stimuli/images/clarinet_13s.jpg,0.6,0.0,False,left,belt_buckle_13s.jpg,../../stimuli/images/belt_buckle_13s.jpg,0.0,0.0,,j,False,,,0.8
episodic_choice_v3,699ca75f99675d449c667b41,True,,707.0,j,,,98.0,1.0,0.0,mid,,,,,boa_07s.jpg,../../stimuli/images/boa_07s.jpg,0.794872,1.0,False,hat_01b.jpg,../../stimuli/images/hat_01b.jpg,0.794872,1.0,False,left,boa_07s.jpg,../../stimuli/images/boa_07s.jpg,1.0,1.0,,j,False,,,0.8
episodic_choice_v3,699ca75f99675d449c667b41,True,,607.0,k,,,99.0,1.0,1.0,high,85.0,14.0,left,1.0,eclair_04s.jpg,../../stimuli/images/eclair_04s.jpg,0.975,1.0,True,walker1_11s.jpg,../../stimuli/images/walker1_11s.jpg,0.952381,0.0,False,right,walker1_11s.jpg,../../stimuli/images/walker1_11s.jpg,0.0,0.0,True,k,False,0.0,0.0,0.8
episodic_choice_v3,699ca75f99675d449c667b41,True,,544.0,j,,,100.0,1.0,0.0,low,,,,,cupcake_10s.jpg,../../stimuli/images/cupcake_10s.jpg,0.634146,1.0,False,hot_chocolate_02s.jpg,../../stimuli/images/hot_chocolate_02s.jpg,0.625,1.0,False,left,cupcake_10s.jpg,../../stimuli/images/cupcake_10s.jpg,1.0,1.0,,j,False,,,0.8
episodic_choice_v3,699ca75f99675d449c667b41,True,,607.0,k,,,101.0,1.0,1.0,high,90.0,11.0,left,0.0,backscratcher_16s.jpg,../../stimuli/images/backscratcher_16s.jpg,0.95,0.0,True,gorilla_13s.jpg,../../stimuli/images/gorilla_13s.jpg,0.974359,1.0,False,right,gorilla_13s.jpg,../../stimuli/images/gorilla_13s.jpg,1.0,1.0,True,k,False,0.0,1.0,0.8
episodic_choice_v3,699ca75f99675d449c667b41,True,,685.0,j,,,102.0,1.0,0.0,mid,,,,,ostrich_18s.jpg,../../stimuli/images/ostrich_18s.jpg,0.795513,0.0,False,mandolin_03n.jpg,../../stimuli/images/mandolin_03n.jpg,0.8,0.0,False,left,ostrich_18s.jpg,../../stimuli/images/ostrich_18s.jpg,0.0,0.0,,j,False,,,0.8
episodic_choice_v3,699ca75f99675d449c667b41,True,,765.0,j,,,103.0,1.0,0.0,low,,,,,poppy_04s.jpg,../../stimuli/images/poppy_04s.jpg,0.487179,1.0,False,engine_10s.jpg,../../stimuli/images/engine_10s.jpg,0.5,1.0,False,left,poppy_04s.jpg,../../stimuli/images/poppy_04s.jpg,1.0,1.0,,j,False,,,0.8
episodic_choice_v3,699ca75f99675d449c667b41,True,,356.0,k,,,104.0,1.0,0.0,high,,,,,turban_07s.jpg,../../stimuli/images/turban_07s.jpg,0.97561,0.0,False,handbrake_10s.jpg,../../stimuli/images/handbrake_10s.jpg,0.904762,0.0,False,right,handbrake_10s.jpg,../../stimuli/images/handbrake_10s.jpg,0.0,0.0,,k,False,,,0.8
episodic_choice_v3,699ca75f99675d449c667b41,True,,432.0,j,,,105.0,1.0,0.0,mid,,,,,drink_04s.jpg,../../stimuli/images/drink_04s.jpg,0.794872,1.0,False,cracker_09s.jpg,../../stimuli/images/cracker_09s.jpg,0.795455,1.0,False,left,drink_04s.jpg,../../stimuli/images/drink_04s.jpg,1.0,1.0,,j,False,,,0.8
episodic_choice_v3,699ca75f99675d449c667b41,True,,,,,,106.0,2.0,0.0,mid,,,,,nail_file_12s.jpg,../../stimuli/images/nail_file_12s.jpg,0.795455,1.0,False,lettuce_09s.jpg,../../stimuli/images/lettuce_09s.jpg,0.794872,1.0,False,,,,,1.0,,,True,,,0.8
episodic_choice_v3,699ca75f99675d449c667b41,True,,879.0,j,,,107.0,2.0,1.0,low,100.0,7.0,left,1.0,cupcake_10s.jpg,../../stimuli/images/cupcake_10s.jpg,0.634146,1.0,True,brake_01b.jpg,../../stimuli/images/brake_01b.jpg,0.463415,0.0,False,left,cupcake_10s.jpg,../../stimuli/images/cupcake_10s.jpg,1.0,1.0,True,j,False,1.0,1.0,0.8
episodic_choice_v3,699ca75f99675d449c667b41,True,,,,,,108.0,2.0,0.0,high,,,,,coaster_13s.jpg,../../stimuli/images/coaster_13s.jpg,0.923077,1.0,False,peppermint_07s.jpg,../../stimuli/images/peppermint_07s.jpg,0.97619,1.0,False,,,,,1.0,,,True,,,0.8
episodic_choice_v3,699ca75f99675d449c667b41,True,,779.0,j,,,109.0,2.0,0.0,high,,,,,peacock_12s.jpg,../../stimuli/images/peacock_12s.jpg,0.925,1.0,False,rack1_07s.jpg,../../stimuli/images/rack1_07s.jpg,0.975,1.0,False,left,peacock_12s.jpg,../../stimuli/images/peacock_12s.jpg,1.0,1.0,,j,False,,,0.8
episodic_choice_v3,699ca75f99675d449c667b41,True,,367.0,j,,,110.0,2.0,1.0,low,103.0,7.0,left,1.0,poppy_04s.jpg,../../stimuli/images/poppy_04s.jpg,0.487179,1.0,True,okra_02n.jpg,../../stimuli/images/okra_02n.jpg,0.410256,1.0,False,left,poppy_04s.jpg,../../stimuli/images/poppy_04s.jpg,1.0,1.0,True,j,False,1.0,1.0,0.8
episodic_choice_v3,699ca75f99675d449c667b41,True,,941.0,k,,,111.0,2.0,1.0,mid,98.0,13.0,left,1.0,boa_07s.jpg,../../stimuli/images/boa_07s.jpg,0.794872,1.0,True,eye_02s.jpg,../../stimuli/images/eye_02s.jpg,0.794872,0.0,False,right,eye_02s.jpg,../../stimuli/images/eye_02s.jpg,0.0,0.0,True,k,False,0.0,0.0,0.8
episodic_choice_v3,699ca75f99675d449c667b41,True,,1005.0,j,,,112.0,2.0,1.0,low,97.0,15.0,left,0.0,belt_buckle_13s.jpg,../../stimuli/images/belt_buckle_13s.jpg,0.6,0.0,True,gourd_08s.jpg,../../stimuli/images/gourd_08s.jpg,0.625,1.0,False,left,belt_buckle_13s.jpg,../../stimuli/images/belt_buckle_13s.jpg,0.0,0.0,True,j,False,1.0,0.0,0.8
episodic_choice_v3,699ca75f99675d449c667b41,True,,290.0,k,,,113.0,2.0,1.0,high,104.0,9.0,right,0.0,pepperoni_08s.jpg,../../stimuli/images/pepperoni_08s.jpg,0.97561,0.0,False,handbrake_10s.jpg,../../stimuli/images/handbrake_10s.jpg,0.904762,0.0,True,right,handbrake_10s.jpg,../../stimuli/images/handbrake_10s.jpg,0.0,0.0,True,k,False,1.0,0.0,0.8
episodic_choice_v3,699ca75f99675d449c667b41,True,,700.0,j,,,114.0,2.0,1.0,mid,102.0,12.0,right,0.0,pillbox_05s.jpg,../../stimuli/images/pillbox_05s.jpg,0.794872,0.0,False,ostrich_18s.jpg,../../stimuli/images/ostrich_18s.jpg,0.795513,0.0,True,left,pillbox_05s.jpg,../../stimuli/images/pillbox_05s.jpg,0.0,0.0,True,j,False,0.0,1.0,0.8
episodic_choice_v3,699ca75f99675d449c667b41,True,,477.0,k,,,115.0,2.0,0.0,low,,,,,sword_06s.jpg,../../stimuli/images/sword_06s.jpg,0.585366,1.0,False,leg_04s.jpg,../../stimuli/images/leg_04s.jpg,0.641026,1.0,False,right,leg_04s.jpg,../../stimuli/images/leg_04s.jpg,1.0,1.0,,k,False,,,0.8
episodic_choice_v3,699ca75f99675d449c667b41,True,,341.0,j,,,116.0,2.0,1.0,high,108.0,8.0,right,1.0,airbag_13s.jpg,../../stimuli/images/airbag_13s.jpg,0.925,0.0,False,peppermint_07s.jpg,../../stimuli/images/peppermint_07s.jpg,0.97619,1.0,True,left,airbag_13s.jpg,../../stimuli/images/airbag_13s.jpg,0.0,0.0,True,j,False,0.0,0.0,0.8
episodic_choice_v3,699ca75f99675d449c667b41,True,,341.0,k,,,117.0,2.0,1.0,mid,105.0,12.0,left,1.0,drink_04s.jpg,../../stimuli/images/drink_04s.jpg,0.794872,1.0,True,chopsticks_04s.jpg,../../stimuli/images/chopsticks_04s.jpg,0.794872,1.0,False,right,chopsticks_04s.jpg,../../stimuli/images/chopsticks_04s.jpg,1.0,1.0,True,k,False,0.0,0.0,0.8
episodic_choice_v3,699ca75f99675d449c667b41,True,,609.0,j,,,118.0,2.0,0.0,low,,,,,icemaker_01b.jpg,../../stimuli/images/icemaker_01b.jpg,0.581395,1.0,False,barnacle_05s.jpg,../../stimuli/images/barnacle_05s.jpg,0.486486,1.0,False,left,icemaker_01b.jpg,../../stimuli/images/icemaker_01b.jpg,1.0,1.0,,j,False,,,0.8
episodic_choice_v3,699ca75f99675d449c667b41,True,,1026.0,k,,,119.0,2.0,1.0,high,109.0,10.0,right,1.0,football_helmet_01b.jpg,../../stimuli/images/football_helmet_01b.jpg,0.95,1.0,False,peacock_12s.jpg,../../stimuli/images/peacock_12s.jpg,0.925,1.0,True,right,peacock_12s.jpg,../../stimuli/images/peacock_12s.jpg,1.0,1.0,True,k,False,1.0,1.0,0.8
episodic_choice_v3,699ca75f99675d449c667b41,True,,641.0,j,,,120.0,2.0,1.0,mid,106.0,14.0,right,1.0,oar_09s.jpg,../../stimuli/images/oar_09s.jpg,0.794872,1.0,False,nail_file_12s.jpg,../../stimuli/images/nail_file_12s.jpg,0.795455,1.0,True,left,oar_09s.jpg,../../stimuli/images/oar_09s.jpg,1.0,1.0,True,j,False,0.0,0.0,0.8
episodic_choice_v3,699ca75f99675d449c667b41,True,,549.0,k,,,121.0,2.0,0.0,low,,,,,melon_10s.jpg,../../stimuli/images/melon_10s.jpg,0.625,1.0,False,crystal_ball_08s.jpg,../../stimuli/images/crystal_ball_08s.jpg,0.55,1.0,False,right,crystal_ball_08s.jpg,../../stimuli/images/crystal_ball_08s.jpg,1.0,1.0,,k,False,,,0.8
episodic_choice_v3,699ca75f99675d449c667b41,True,,422.0,k,,,122.0,2.0,0.0,mid,,,,,dirt_bike_01b.jpg,../../stimuli/images/dirt_bike_01b.jpg,0.794872,1.0,False,spider_09n.jpg,../../stimuli/images/spider_09n.jpg,0.795455,1.0,False,right,spider_09n.jpg,../../stimuli/images/spider_09n.jpg,1.0,1.0,,k,False,,,0.8
episodic_choice_v3,699ca75f99675d449c667b41,True,,255.0,k,,,123.0,2.0,0.0,high,,,,,eggnog_11s.jpg,../../stimuli/images/eggnog_11s.jpg,0.9,0.0,False,pumpkin_11s.jpg,../../stimuli/images/pumpkin_11s.jpg,0.95122,0.0,False,right,pumpkin_11s.jpg,../../stimuli/images/pumpkin_11s.jpg,0.0,0.0,,k,False,,,0.8
episodic_choice_v3,699ca75f99675d449c667b41,True,,509.0,j,,,124.0,2.0,0.0,mid,,,,,mint_04s.jpg,../../stimuli/images/mint_04s.jpg,0.794872,0.0,False,raft_07s.jpg,../../stimuli/images/raft_07s.jpg,0.794872,0.0,False,left,mint_04s.jpg,../../stimuli/images/mint_04s.jpg,0.0,0.0,,j,False,,,0.8
episodic_choice_v3,699ca75f99675d449c667b41,True,,639.0,j,,,125.0,2.0,0.0,low,,,,,paper_01b.jpg,../../stimuli/images/paper_01b.jpg,0.461538,1.0,False,razor_blade_04s.jpg,../../stimuli/images/razor_blade_04s.jpg,0.536585,1.0,False,left,paper_01b.jpg,../../stimuli/images/paper_01b.jpg,1.0,1.0,,j,False,,,0.8
episodic_choice_v3,699ca75f99675d449c667b41,True,,747.0,j,,,126.0,2.0,0.0,high,,,,,grater_02s.jpg,../../stimuli/images/grater_02s.jpg,0.95,0.0,False,candy_bar_04s.jpg,../../stimuli/images/candy_bar_04s.jpg,1.0,0.0,False,left,grater_02s.jpg,../../stimuli/images/grater_02s.jpg,0.0,0.0,,j,False,,,0.8
episodic_choice_v3,699ca75f99675d449c667b41,True,,522.0,k,,,127.0,2.0,0.0,high,,,,,swimsuit_06s.jpg,../../stimuli/images/swimsuit_06s.jpg,0.97561,1.0,False,caramel_10s.jpg,../../stimuli/images/caramel_10s.jpg,0.95,1.0,False,right,caramel_10s.jpg,../../stimuli/images/caramel_10s.jpg,1.0,1.0,,k,False,,,0.8
episodic_choice_v3,699ca75f99675d449c667b41,True,,838.0,j,,,128.0,2.0,1.0,low,118.0,10.0,right,1.0,beachball_13s.jpg,../../stimuli/images/beachball_13s.jpg,0.6,0.0,False,icemaker_01b.jpg,../../stimuli/images/icemaker_01b.jpg,0.581395,1.0,True,left,beachball_13s.jpg,../../stimuli/images/beachball_13s.jpg,0.0,0.0,True,j,False,0.0,0.0,0.8
episodic_choice_v3,699ca75f99675d449c667b41,True,,934.0,k,,,129.0,2.0,1.0,mid,122.0,7.0,right,1.0,syringe_12s.jpg,../../stimuli/images/syringe_12s.jpg,0.8,0.0,False,spider_09n.jpg,../../stimuli/images/spider_09n.jpg,0.795455,1.0,True,right,spider_09n.jpg,../../stimuli/images/spider_09n.jpg,1.0,1.0,True,k,False,1.0,1.0,0.8
episodic_choice_v3,699ca75f99675d449c667b41,True,,519.0,k,,,130.0,2.0,1.0,low,115.0,15.0,left,1.0,leg_04s.jpg,../../stimuli/images/leg_04s.jpg,0.641026,1.0,True,pheasant_06s.jpg,../../stimuli/images/pheasant_06s.jpg,0.487805,0.0,False,right,pheasant_06s.jpg,../../stimuli/images/pheasant_06s.jpg,0.0,0.0,True,k,False,0.0,0.0,0.8
episodic_choice_v3,699ca75f99675d449c667b41,True,,,,,,131.0,2.0,0.0,mid,,,,,train_set_10s.jpg,../../stimuli/images/train_set_10s.jpg,0.794872,1.0,False,milkshake_07s.jpg,../../stimuli/images/milkshake_07s.jpg,0.794872,1.0,False,,,,,1.0,,,True,,,0.8
episodic_choice_v3,699ca75f99675d449c667b41,True,,,,,,132.0,2.0,0.0,high,,,,,celery_07s.jpg,../../stimuli/images/celery_07s.jpg,0.95,1.0,False,unicycle_10s.jpg,../../stimuli/images/unicycle_10s.jpg,0.928571,1.0,False,,,,,1.0,,,True,,,0.8
episodic_choice_v3,699ca75f99675d449c667b41,True,,319.0,j,,,133.0,2.0,0.0,mid,,,,,sewing_machine_05s.jpg,../../stimuli/images/sewing_machine_05s.jpg,0.794872,1.0,False,corkscrew_03s.jpg,../../stimuli/images/corkscrew_03s.jpg,0.794872,1.0,False,left,sewing_machine_05s.jpg,../../stimuli/images/sewing_machine_05s.jpg,1.0,1.0,,j,False,,,0.8
episodic_choice_v3,699ca75f99675d449c667b41,True,,465.0,j,,,134.0,2.0,1.0,low,121.0,13.0,right,1.0,poinsettia_08s.jpg,../../stimuli/images/poinsettia_08s.jpg,0.5,0.0,False,crystal_ball_08s.jpg,../../stimuli/images/crystal_ball_08s.jpg,0.55,1.0,True,left,poinsettia_08s.jpg,../../stimuli/images/poinsettia_08s.jpg,0.0,0.0,True,j,False,0.0,0.0,0.8
episodic_choice_v3,699ca75f99675d449c667b41,True,,380.0,k,,,135.0,2.0,1.0,high,123.0,12.0,right,0.0,seatbelt_08s.jpg,../../stimuli/images/seatbelt_08s.jpg,0.925,0.0,False,pumpkin_11s.jpg,../../stimuli/images/pumpkin_11s.jpg,0.95122,0.0,True,right,pumpkin_11s.jpg,../../stimuli/images/pumpkin_11s.jpg,0.0,0.0,True,k,False,1.0,0.0,0.8
episodic_choice_v3,699ca75f99675d449c667b41,True,,352.0,j,,,136.0,2.0,1.0,mid,124.0,12.0,left,0.0,mint_04s.jpg,../../stimuli/images/mint_04s.jpg,0.794872,0.0,True,parsley_10s.jpg,../../stimuli/images/parsley_10s.jpg,0.794872,0.0,False,left,mint_04s.jpg,../../stimuli/images/mint_04s.jpg,0.0,0.0,True,j,False,1.0,0.0,0.8
episodic_choice_v3,699ca75f99675d449c667b41,True,,380.0,k,,,137.0,2.0,1.0,high,127.0,10.0,left,1.0,caramel_10s.jpg,../../stimuli/images/caramel_10s.jpg,0.95,1.0,True,bench_02s.jpg,../../stimuli/images/bench_02s.jpg,0.97561,1.0,False,right,bench_02s.jpg,../../stimuli/images/bench_02s.jpg,1.0,1.0,True,k,False,0.0,0.0,0.8
episodic_choice_v3,699ca75f99675d449c667b41,True,,659.0,j,,,138.0,2.0,1.0,low,125.0,13.0,right,1.0,skeleton_01b.jpg,../../stimuli/images/skeleton_01b.jpg,0.666667,1.0,False,paper_01b.jpg,../../stimuli/images/paper_01b.jpg,0.461538,1.0,True,left,skeleton_01b.jpg,../../stimuli/images/skeleton_01b.jpg,1.0,1.0,True,j,False,0.0,0.0,0.8
episodic_choice_v3,699ca75f99675d449c667b41,True,,358.0,j,,,139.0,2.0,1.0,high,126.0,13.0,right,0.0,raspberry_07s.jpg,../../stimuli/images/raspberry_07s.jpg,0.95,1.0,False,grater_02s.jpg,../../stimuli/images/grater_02s.jpg,0.95,0.0,True,left,raspberry_07s.jpg,../../stimuli/images/raspberry_07s.jpg,1.0,1.0,True,j,False,0.0,1.0,0.8
episodic_choice_v3,699ca75f99675d449c667b41,True,,717.0,j,,,140.0,2.0,0.0,low,,,,,raincoat_07s.jpg,../../stimuli/images/raincoat_07s.jpg,0.525,1.0,False,blazer_08s.jpg,../../stimuli/images/blazer_08s.jpg,0.55,1.0,False,left,raincoat_07s.jpg,../../stimuli/images/raincoat_07s.jpg,1.0,1.0,,j,False,,,0.8
episodic_choice_v3,699ca75f99675d449c667b41,True,,484.0,j,,,141.0,2.0,0.0,mid,,,,,odometer_15n.jpg,../../stimuli/images/odometer_15n.jpg,0.794872,0.0,False,nutcracker_06s.jpg,../../stimuli/images/nutcracker_06s.jpg,0.794872,0.0,False,left,odometer_15n.jpg,../../stimuli/images/odometer_15n.jpg,0.0,0.0,,j,False,,,0.8
episodic_choice_v3,699ca75f99675d449c667b41,True,,500.0,k,,,142.0,2.0,0.0,low,,,,,corsage_13s.jpg,../../stimuli/images/corsage_13s.jpg,0.615385,1.0,False,bush_03s.jpg,../../stimuli/images/bush_03s.jpg,0.463415,1.0,False,right,bush_03s.jpg,../../stimuli/images/bush_03s.jpg,1.0,1.0,,k,False,,,0.8
episodic_choice_v3,699ca75f99675d449c667b41,True,,469.0,j,,,143.0,2.0,0.0,high,,,,,swab_10s.jpg,../../stimuli/images/swab_10s.jpg,0.947368,1.0,False,suspenders_12s.jpg,../../stimuli/images/suspenders_12s.jpg,0.975,1.0,False,left,swab_10s.jpg,../../stimuli/images/swab_10s.jpg,1.0,1.0,,j,False,,,0.8
episodic_choice_v3,699ca75f99675d449c667b41,True,,393.0,j,,,144.0,2.0,1.0,mid,131.0,13.0,left,1.0,milkshake_07s.jpg,../../stimuli/images/milkshake_07s.jpg,0.794872,1.0,True,leggings_12s.jpg,../../stimuli/images/leggings_12s.jpg,0.794872,0.0,False,left,milkshake_07s.jpg,../../stimuli/images/milkshake_07s.jpg,1.0,1.0,True,j,False,1.0,1.0,0.8
episodic_choice_v3,699ca75f99675d449c667b41,True,,,,,,145.0,2.0,0.0,low,,,,,scarf_11s.jpg,../../stimuli/images/scarf_11s.jpg,0.575,0.0,False,horn_11s.jpg,../../stimuli/images/horn_11s.jpg,0.547619,0.0,False,,,,,0.0,,,True,,,0.8
episodic_choice_v3,699ca75f99675d449c667b41,True,,240.0,k,,,146.0,2.0,1.0,high,132.0,14.0,left,1.0,unicycle_10s.jpg,../../stimuli/images/unicycle_10s.jpg,0.928571,1.0,True,sled_01b.jpg,../../stimuli/images/sled_01b.jpg,0.928571,1.0,False,right,sled_01b.jpg,../../stimuli/images/sled_01b.jpg,1.0,1.0,True,k,False,0.0,0.0,0.8
episodic_choice_v3,699ca75f99675d449c667b41,True,,577.0,j,,,147.0,2.0,1.0,mid,133.0,14.0,right,1.0,blackberry_04s.jpg,../../stimuli/images/blackberry_04s.jpg,0.795455,1.0,False,sewing_machine_05s.jpg,../../stimuli/images/sewing_machine_05s.jpg,0.794872,1.0,True,left,blackberry_04s.jpg,../../stimuli/images/blackberry_04s.jpg,1.0,1.0,True,j,False,0.0,0.0,0.8
episodic_choice_v3,699ca75f99675d449c667b41,True,,,,,,148.0,2.0,0.0,high,,,,,abacus_12s.jpg,../../stimuli/images/abacus_12s.jpg,0.926829,1.0,False,step_stool_09s.jpg,../../stimuli/images/step_stool_09s.jpg,0.95,1.0,False,,,,,1.0,,,True,,,0.8
episodic_choice_v3,699ca75f99675d449c667b41,True,,486.0,k,,,149.0,2.0,0.0,mid,,,,,box_11s.jpg,../../stimuli/images/box_11s.jpg,0.794872,0.0,False,tweezers_05s.jpg,../../stimuli/images/tweezers_05s.jpg,0.794872,0.0,False,right,tweezers_05s.jpg,../../stimuli/images/tweezers_05s.jpg,0.0,0.0,,k,False,,,0.8
episodic_choice_v3,699ca75f99675d449c667b41,True,,716.0,j,,,150.0,2.0,0.0,low,,,,,dessert_20s.jpg,../../stimuli/images/dessert_20s.jpg,0.625,1.0,False,plant_10s.jpg,../../stimuli/images/plant_10s.jpg,0.473684,1.0,False,left,dessert_20s.jpg,../../stimuli/images/dessert_20s.jpg,1.0,1.0,,j,False,,,0.8
episodic_choice_v3,699ca75f99675d449c667b41,True,,,,,,151.0,2.0,0.0,mid,,,,,coconut_13s.jpg,../../stimuli/images/coconut_13s.jpg,0.794872,1.0,False,kettle_10s.jpg,../../stimuli/images/kettle_10s.jpg,0.794872,1.0,False,,,,,1.0,,,True,,,0.8
episodic_choice_v3,699ca75f99675d449c667b41,True,,634.0,j,,,152.0,2.0,0.0,high,,,,,pomegranate_08s.jpg,../../stimuli/images/pomegranate_08s.jpg,0.95122,0.0,False,glue_08s.jpg,../../stimuli/images/glue_08s.jpg,0.947368,0.0,False,left,pomegranate_08s.jpg,../../stimuli/images/pomegranate_08s.jpg,0.0,0.0,,j,False,,,0.8
episodic_choice_v3,699ca75f99675d449c667b41,True,,558.0,j,,,153.0,2.0,1.0,low,140.0,13.0,right,1.0,grinder_10s.jpg,../../stimuli/images/grinder_10s.jpg,0.577778,0.0,False,raincoat_07s.jpg,../../stimuli/images/raincoat_07s.jpg,0.525,1.0,True,left,grinder_10s.jpg,../../stimuli/images/grinder_10s.jpg,0.0,0.0,True,j,False,0.0,0.0,0.8
episodic_choice_v3,699ca75f99675d449c667b41,True,,544.0,j,,,154.0,2.0,1.0,mid,141.0,13.0,right,0.0,marijuana_08s.jpg,../../stimuli/images/marijuana_08s.jpg,0.794872,1.0,False,odometer_15n.jpg,../../stimuli/images/odometer_15n.jpg,0.794872,0.0,True,left,marijuana_08s.jpg,../../stimuli/images/marijuana_08s.jpg,1.0,1.0,True,j,False,0.0,1.0,0.8
episodic_choice_v3,699ca75f99675d449c667b41,True,,,,,,155.0,2.0,1.0,low,142.0,13.0,left,1.0,bush_03s.jpg,../../stimuli/images/bush_03s.jpg,0.463415,1.0,True,defibrillator_01b.jpg,../../stimuli/images/defibrillator_01b.jpg,0.55,0.0,False,,,,,1.0,True,,True,,,0.8
episodic_choice_v3,699ca75f99675d449c667b41,True,,692.0,j,,,156.0,2.0,1.0,high,143.0,13.0,left,1.0,swab_10s.jpg,../../stimuli/images/swab_10s.jpg,0.947368,1.0,True,gearshift_09n.jpg,../../stimuli/images/gearshift_09n.jpg,0.9,0.0,False,left,swab_10s.jpg,../../stimuli/images/swab_10s.jpg,1.0,1.0,True,j,False,1.0,1.0,0.8
episodic_choice_v3,699ca75f99675d449c667b41,True,,294.0,j,,,157.0,2.0,1.0,mid,149.0,8.0,right,0.0,razor_03s.jpg,../../stimuli/images/razor_03s.jpg,0.794872,1.0,False,tweezers_05s.jpg,../../stimuli/images/tweezers_05s.jpg,0.794872,0.0,True,left,razor_03s.jpg,../../stimuli/images/razor_03s.jpg,1.0,1.0,True,j,False,0.0,1.0,0.8
episodic_choice_v3,699ca75f99675d449c667b41,True,,426.0,j,,,158.0,2.0,0.0,low,,,,,crutch_06s.jpg,../../stimuli/images/crutch_06s.jpg,0.615385,1.0,False,bumper_03s.jpg,../../stimuli/images/bumper_03s.jpg,0.439024,1.0,False,left,crutch_06s.jpg,../../stimuli/images/crutch_06s.jpg,1.0,1.0,,j,False,,,0.8
episodic_choice_v3,699ca75f99675d449c667b41,True,,384.0,j,,,159.0,2.0,1.0,high,148.0,11.0,left,1.0,abacus_12s.jpg,../../stimuli/images/abacus_12s.jpg,0.926829,1.0,True,boomerang_07s.jpg,../../stimuli/images/boomerang_07s.jpg,0.953488,1.0,False,left,abacus_12s.jpg,../../stimuli/images/abacus_12s.jpg,1.0,1.0,True,j,False,1.0,1.0,0.8
episodic_choice_v3,699ca75f99675d449c667b41,True,,683.0,j,,,160.0,2.0,1.0,low,145.0,15.0,right,0.0,jump_rope_12s.jpg,../../stimuli/images/jump_rope_12s.jpg,0.55,1.0,False,scarf_11s.jpg,../../stimuli/images/scarf_11s.jpg,0.575,0.0,True,left,jump_rope_12s.jpg,../../stimuli/images/jump_rope_12s.jpg,1.0,1.0,True,j,False,0.0,1.0,0.8
episodic_choice_v3,699ca75f99675d449c667b41,True,,1160.0,j,,,161.0,2.0,0.0,high,,,,,baton2_09s.jpg,../../stimuli/images/baton2_09s.jpg,0.95,0.0,False,loincloth_01b.jpg,../../stimuli/images/loincloth_01b.jpg,1.0,0.0,False,left,baton2_09s.jpg,../../stimuli/images/baton2_09s.jpg,0.0,0.0,,j,False,,,0.8
episodic_choice_v3,699ca75f99675d449c667b41,True,,753.0,j,,,162.0,2.0,1.0,mid,151.0,11.0,left,1.0,coconut_13s.jpg,../../stimuli/images/coconut_13s.jpg,0.794872,1.0,True,stereo_06s.jpg,../../stimuli/images/stereo_06s.jpg,0.794872,0.0,False,left,coconut_13s.jpg,../../stimuli/images/coconut_13s.jpg,1.0,1.0,True,j,False,1.0,1.0,0.8
episodic_choice_v3,699ca75f99675d449c667b41,True,,384.0,j,,,163.0,2.0,1.0,low,150.0,13.0,left,1.0,dessert_20s.jpg,../../stimuli/images/dessert_20s.jpg,0.625,1.0,True,buggy_10s.jpg,../../stimuli/images/buggy_10s.jpg,0.52381,1.0,False,left,dessert_20s.jpg,../../stimuli/images/dessert_20s.jpg,1.0,1.0,True,j,False,1.0,1.0,0.8
episodic_choice_v3,699ca75f99675d449c667b41,True,,1089.0,j,,,164.0,2.0,1.0,high,152.0,12.0,left,0.0,pomegranate_08s.jpg,../../stimuli/images/pomegranate_08s.jpg,0.95122,0.0,True,bongo_14s.jpg,../../stimuli/images/bongo_14s.jpg,0.948718,0.0,False,left,pomegranate_08s.jpg,../../stimuli/images/pomegranate_08s.jpg,0.0,0.0,True,j,False,1.0,0.0,0.8
episodic_choice_v3,699ca75f99675d449c667b41,True,,867.0,j,,,165.0,2.0,0.0,mid,,,,,cucumber_14n.jpg,../../stimuli/images/cucumber_14n.jpg,0.794872,0.0,False,scissors_03s.jpg,../../stimuli/images/scissors_03s.jpg,0.794872,0.0,False,left,cucumber_14n.jpg,../../stimuli/images/cucumber_14n.jpg,0.0,0.0,,j,False,,,0.8
episodic_choice_v3,699ca75f99675d449c667b41,True,,405.0,k,,,166.0,2.0,1.0,low,158.0,8.0,right,1.0,tomato_10n.jpg,../../stimuli/images/tomato_10n.jpg,0.564103,1.0,False,crutch_06s.jpg,../../stimuli/images/crutch_06s.jpg,0.615385,1.0,True,right,crutch_06s.jpg,../../stimuli/images/crutch_06s.jpg,1.0,1.0,True,k,False,1.0,1.0,0.8
episodic_choice_v3,699ca75f99675d449c667b41,True,,813.0,j,,,167.0,2.0,0.0,mid,,,,,goldfish_10s.jpg,../../stimuli/images/goldfish_10s.jpg,0.795455,1.0,False,toy_06s.jpg,../../stimuli/images/toy_06s.jpg,0.794872,1.0,False,left,goldfish_10s.jpg,../../stimuli/images/goldfish_10s.jpg,1.0,1.0,,j,False,,,0.8
episodic_choice_v3,699ca75f99675d449c667b41,True,,426.0,j,,,168.0,2.0,0.0,high,,,,,stilt_13s.jpg,../../stimuli/images/stilt_13s.jpg,0.954545,0.0,False,shelf_07s.jpg,../../stimuli/images/shelf_07s.jpg,0.975,0.0,False,left,stilt_13s.jpg,../../stimuli/images/stilt_13s.jpg,0.0,0.0,,j,False,,,0.8
episodic_choice_v3,699ca75f99675d449c667b41,True,,401.0,j,,,169.0,2.0,0.0,low,,,,,pillow_02s.jpg,../../stimuli/images/pillow_02s.jpg,0.511628,1.0,False,timer_08s.jpg,../../stimuli/images/timer_08s.jpg,0.631579,1.0,False,left,pillow_02s.jpg,../../stimuli/images/pillow_02s.jpg,1.0,1.0,,j,False,,,0.8
episodic_choice_v3,699ca75f99675d449c667b41,True,,640.0,j,,,170.0,2.0,0.0,mid,,,,,birthday_cake_15s.jpg,../../stimuli/images/birthday_cake_15s.jpg,0.794872,0.0,False,skin_04s.jpg,../../stimuli/images/skin_04s.jpg,0.794872,0.0,False,left,birthday_cake_15s.jpg,../../stimuli/images/birthday_cake_15s.jpg,0.0,0.0,,j,False,,,0.8
episodic_choice_v3,699ca75f99675d449c667b41,True,,1782.0,j,,,171.0,2.0,0.0,high,,,,,tamale_06s.jpg,../../stimuli/images/tamale_06s.jpg,1.0,1.0,False,garlic_12n.jpg,../../stimuli/images/garlic_12n.jpg,0.95,1.0,False,left,tamale_06s.jpg,../../stimuli/images/tamale_06s.jpg,1.0,1.0,,j,False,,,0.8
episodic_choice_v3,699ca75f99675d449c667b41,True,,464.0,k,,,172.0,2.0,1.0,high,161.0,11.0,right,0.0,cape_07s.jpg,../../stimuli/images/cape_07s.jpg,1.0,0.0,False,baton2_09s.jpg,../../stimuli/images/baton2_09s.jpg,0.95,0.0,True,right,baton2_09s.jpg,../../stimuli/images/baton2_09s.jpg,0.0,0.0,True,k,False,1.0,0.0,0.8
episodic_choice_v3,699ca75f99675d449c667b41,True,,1050.0,j,,,173.0,2.0,0.0,mid,,,,,blower_08s.jpg,../../stimuli/images/blower_08s.jpg,0.794872,1.0,False,prune_01b.jpg,../../stimuli/images/prune_01b.jpg,0.794872,1.0,False,left,blower_08s.jpg,../../stimuli/images/blower_08s.jpg,1.0,1.0,,j,False,,,0.8
episodic_choice_v3,699ca75f99675d449c667b41,True,,923.0,k,,,174.0,2.0,0.0,low,,,,,catapult_01b.jpg,../../stimuli/images/catapult_01b.jpg,0.525,0.0,False,orchid_05s.jpg,../../stimuli/images/orchid_05s.jpg,0.461538,0.0,False,right,orchid_05s.jpg,../../stimuli/images/orchid_05s.jpg,0.0,0.0,,k,False,,,0.8
episodic_choice_v3,699ca75f99675d449c667b41,True,,371.0,j,,,175.0,2.0,0.0,low,,,,,toe_08s.jpg,../../stimuli/images/toe_08s.jpg,0.692308,1.0,False,coffee_table_11s.jpg,../../stimuli/images/coffee_table_11s.jpg,0.522727,1.0,False,left,toe_08s.jpg,../../stimuli/images/toe_08s.jpg,1.0,1.0,,j,False,,,0.8
episodic_choice_v3,699ca75f99675d449c667b41,True,,490.0,j,,,176.0,2.0,1.0,mid,167.0,9.0,left,1.0,goldfish_10s.jpg,../../stimuli/images/goldfish_10s.jpg,0.795455,1.0,True,crank_15s.jpg,../../stimuli/images/crank_15s.jpg,0.794872,1.0,False,left,goldfish_10s.jpg,../../stimuli/images/goldfish_10s.jpg,1.0,1.0,True,j,False,1.0,1.0,0.8
episodic_choice_v3,699ca75f99675d449c667b41,True,,811.0,k,,,177.0,2.0,1.0,high,168.0,9.0,left,0.0,stilt_13s.jpg,../../stimuli/images/stilt_13s.jpg,0.954545,0.0,True,baseball_bat_06s.jpg,../../stimuli/images/baseball_bat_06s.jpg,0.95,1.0,False,right,baseball_bat_06s.jpg,../../stimuli/images/baseball_bat_06s.jpg,1.0,1.0,True,k,False,0.0,1.0,0.8
episodic_choice_v3,699ca75f99675d449c667b41,True,,573.0,j,,,178.0,2.0,1.0,mid,165.0,13.0,left,0.0,cucumber_14n.jpg,../../stimuli/images/cucumber_14n.jpg,0.794872,0.0,True,water_filter_03s.jpg,../../stimuli/images/water_filter_03s.jpg,0.8,1.0,False,left,cucumber_14n.jpg,../../stimuli/images/cucumber_14n.jpg,0.0,0.0,True,j,False,1.0,0.0,0.8
episodic_choice_v3,699ca75f99675d449c667b41,True,,617.0,k,,,179.0,2.0,1.0,low,169.0,10.0,left,1.0,pillow_02s.jpg,../../stimuli/images/pillow_02s.jpg,0.511628,1.0,True,honeypot_13s.jpg,../../stimuli/images/honeypot_13s.jpg,0.547619,0.0,False,right,honeypot_13s.jpg,../../stimuli/images/honeypot_13s.jpg,0.0,0.0,True,k,False,0.0,0.0,0.8
episodic_choice_v3,699ca75f99675d449c667b41,True,,357.0,j,,,180.0,2.0,0.0,high,,,,,highlighter_01b.jpg,../../stimuli/images/highlighter_01b.jpg,0.95,1.0,False,juicer1_10s.jpg,../../stimuli/images/juicer1_10s.jpg,0.975,1.0,False,left,highlighter_01b.jpg,../../stimuli/images/highlighter_01b.jpg,1.0,1.0,,j,False,,,0.8
episodic_choice_v3,699ca75f99675d449c667b41,True,,620.0,j,,,181.0,2.0,1.0,high,171.0,10.0,left,1.0,tamale_06s.jpg,../../stimuli/images/tamale_06s.jpg,1.0,1.0,True,baton3_08s.jpg,../../stimuli/images/baton3_08s.jpg,0.95,0.0,False,left,tamale_06s.jpg,../../stimuli/images/tamale_06s.jpg,1.0,1.0,True,j,False,1.0,1.0,0.8
episodic_choice_v3,699ca75f99675d449c667b41,True,,,,,,182.0,2.0,1.0,low,174.0,8.0,right,0.0,pinwheel_09n.jpg,../../stimuli/images/pinwheel_09n.jpg,0.564103,1.0,False,orchid_05s.jpg,../../stimuli/images/orchid_05s.jpg,0.461538,0.0,True,,,,,0.0,True,,True,,,0.8
episodic_choice_v3,699ca75f99675d449c667b41,True,,467.0,j,,,183.0,2.0,1.0,mid,173.0,10.0,right,1.0,eraser_08s.jpg,../../stimuli/images/eraser_08s.jpg,0.8,1.0,False,blower_08s.jpg,../../stimuli/images/blower_08s.jpg,0.794872,1.0,True,left,eraser_08s.jpg,../../stimuli/images/eraser_08s.jpg,1.0,1.0,True,j,False,0.0,0.0,0.8
episodic_choice_v3,699ca75f99675d449c667b41,True,,622.0,j,,,184.0,2.0,1.0,mid,170.0,14.0,left,0.0,birthday_cake_15s.jpg,../../stimuli/images/birthday_cake_15s.jpg,0.794872,0.0,True,bin_06s.jpg,../../stimuli/images/bin_06s.jpg,0.794872,1.0,False,left,birthday_cake_15s.jpg,../../stimuli/images/birthday_cake_15s.jpg,0.0,0.0,True,j,False,1.0,0.0,0.8
episodic_choice_v3,699ca75f99675d449c667b41,True,,1098.0,k,,,185.0,2.0,1.0,low,175.0,10.0,right,1.0,gurney_09s.jpg,../../stimuli/images/gurney_09s.jpg,0.585366,0.0,False,toe_08s.jpg,../../stimuli/images/toe_08s.jpg,0.692308,1.0,True,right,toe_08s.jpg,../../stimuli/images/toe_08s.jpg,1.0,1.0,True,k,False,1.0,1.0,0.8
episodic_choice_v3,699ca75f99675d449c667b41,True,,671.0,k,,,186.0,2.0,0.0,high,,,,,cactus_12s.jpg,../../stimuli/images/cactus_12s.jpg,0.95,1.0,False,headscarf_11s.jpg,../../stimuli/images/headscarf_11s.jpg,0.97619,1.0,False,right,headscarf_11s.jpg,../../stimuli/images/headscarf_11s.jpg,1.0,1.0,,k,False,,,0.8
episodic_choice_v3,699ca75f99675d449c667b41,True,,935.0,j,,,187.0,2.0,0.0,low,,,,,food_processor_12s.jpg,../../stimuli/images/food_processor_12s.jpg,0.585366,0.0,False,pencil_07s.jpg,../../stimuli/images/pencil_07s.jpg,0.564103,0.0,False,left,food_processor_12s.jpg,../../stimuli/images/food_processor_12s.jpg,0.0,0.0,,j,False,,,0.8
episodic_choice_v3,699ca75f99675d449c667b41,True,,1075.0,k,,,188.0,2.0,0.0,mid,,,,,chin_09s.jpg,../../stimuli/images/chin_09s.jpg,0.794872,1.0,False,accordion_13s.jpg,../../stimuli/images/accordion_13s.jpg,0.8,1.0,False,right,accordion_13s.jpg,../../stimuli/images/accordion_13s.jpg,1.0,1.0,,k,False,,,0.8
episodic_choice_v3,699ca75f99675d449c667b41,True,,731.0,k,,,189.0,2.0,1.0,high,180.0,9.0,left,1.0,highlighter_01b.jpg,../../stimuli/images/highlighter_01b.jpg,0.95,1.0,True,broccoli_12s.jpg,../../stimuli/images/broccoli_12s.jpg,0.952381,1.0,False,right,broccoli_12s.jpg,../../stimuli/images/broccoli_12s.jpg,1.0,1.0,True,k,False,0.0,0.0,0.8
episodic_choice_v3,699ca75f99675d449c667b41,True,,1301.0,j,,,190.0,2.0,0.0,low,,,,,bone_09s.jpg,../../stimuli/images/bone_09s.jpg,0.642857,0.0,False,hawk_07s.jpg,../../stimuli/images/hawk_07s.jpg,0.595238,0.0,False,left,bone_09s.jpg,../../stimuli/images/bone_09s.jpg,0.0,0.0,,j,False,,,0.8
episodic_choice_v3,699ca75f99675d449c667b41,True,,,,,,191.0,2.0,0.0,high,,,,,artichoke_04s.jpg,../../stimuli/images/artichoke_04s.jpg,0.95122,0.0,False,spam_02s.jpg,../../stimuli/images/spam_02s.jpg,1.0,0.0,False,,,,,0.0,,,True,,,0.8
episodic_choice_v3,699ca75f99675d449c667b41,True,,419.0,j,,,192.0,2.0,0.0,mid,,,,,kazoo_07s.jpg,../../stimuli/images/kazoo_07s.jpg,0.794872,0.0,False,bow1_01b.jpg,../../stimuli/images/bow1_01b.jpg,0.794872,0.0,False,left,kazoo_07s.jpg,../../stimuli/images/kazoo_07s.jpg,0.0,0.0,,j,False,,,0.8
episodic_choice_v3,699ca75f99675d449c667b41,True,,627.0,j,,,193.0,2.0,1.0,high,186.0,7.0,left,1.0,headscarf_11s.jpg,../../stimuli/images/headscarf_11s.jpg,0.97619,1.0,True,sickle_01b.jpg,../../stimuli/images/sickle_01b.jpg,0.952381,0.0,False,left,headscarf_11s.jpg,../../stimuli/images/headscarf_11s.jpg,1.0,1.0,True,j,False,1.0,1.0,0.8
episodic_choice_v3,699ca75f99675d449c667b41,True,,287.0,j,,,194.0,2.0,0.0,low,,,,,pot_04s.jpg,../../stimuli/images/pot_04s.jpg,0.534884,0.0,False,coffee_04s.jpg,../../stimuli/images/coffee_04s.jpg,0.6,0.0,False,left,pot_04s.jpg,../../stimuli/images/pot_04s.jpg,0.0,0.0,,j,False,,,0.8
episodic_choice_v3,699ca75f99675d449c667b41,True,,862.0,j,,,195.0,2.0,0.0,mid,,,,,whale_10s.jpg,../../stimuli/images/whale_10s.jpg,0.795455,0.0,False,gyroscope_12s.jpg,../../stimuli/images/gyroscope_12s.jpg,0.794872,0.0,False,left,whale_10s.jpg,../../stimuli/images/whale_10s.jpg,0.0,0.0,,j,False,,,0.8
episodic_choice_v3,699ca75f99675d449c667b41,True,,704.0,j,,,196.0,2.0,0.0,low,,,,,doily_06s.jpg,../../stimuli/images/doily_06s.jpg,0.55,0.0,False,tank2_12s.jpg,../../stimuli/images/tank2_12s.jpg,0.512195,0.0,False,left,doily_06s.jpg,../../stimuli/images/doily_06s.jpg,0.0,0.0,,j,False,,,0.8
episodic_choice_v3,699ca75f99675d449c667b41,True,,340.0,k,,,197.0,2.0,0.0,high,,,,,wrench_05s.jpg,../../stimuli/images/wrench_05s.jpg,0.95122,1.0,False,water_heater_06s.jpg,../../stimuli/images/water_heater_06s.jpg,0.95,1.0,False,right,water_heater_06s.jpg,../../stimuli/images/water_heater_06s.jpg,1.0,1.0,,k,False,,,0.8
episodic_choice_v3,699ca75f99675d449c667b41,True,,303.0,j,,,198.0,2.0,0.0,mid,,,,,pie_15s.jpg,../../stimuli/images/pie_15s.jpg,0.794872,1.0,False,home_plate_02s.jpg,../../stimuli/images/home_plate_02s.jpg,0.794872,1.0,False,left,pie_15s.jpg,../../stimuli/images/pie_15s.jpg,1.0,1.0,,j,False,,,0.8
episodic_choice_v3,699ca75f99675d449c667b41,True,,658.0,j,,,199.0,2.0,1.0,high,191.0,8.0,right,0.0,notepad_03s.jpg,../../stimuli/images/notepad_03s.jpg,0.975,1.0,False,spam_02s.jpg,../../stimuli/images/spam_02s.jpg,1.0,0.0,True,left,notepad_03s.jpg,../../stimuli/images/notepad_03s.jpg,1.0,1.0,True,j,False,0.0,1.0,0.8
episodic_choice_v3,699ca75f99675d449c667b41,True,,1445.0,j,,,200.0,2.0,0.0,mid,,,,,steering_wheel_08s.jpg,../../stimuli/images/steering_wheel_08s.jpg,0.8,1.0,False,chick_06s.jpg,../../stimuli/images/chick_06s.jpg,0.794872,1.0,False,left,steering_wheel_08s.jpg,../../stimuli/images/steering_wheel_08s.jpg,1.0,1.0,,j,False,,,0.8
episodic_choice_v3,699ca75f99675d449c667b41,,True,1212.0,h,h,True,,,,,,,,,,,,,,,,,,,,,,,,,h,,,,0.8
episodic_choice_v3,699ca75f99675d449c667b41,True,,822.0,j,,,201.0,2.0,1.0,low,187.0,14.0,left,0.0,food_processor_12s.jpg,../../stimuli/images/food_processor_12s.jpg,0.585366,0.0,True,crowbar_07n.jpg,../../stimuli/images/crowbar_07n.jpg,0.564103,1.0,False,left,food_processor_12s.jpg,../../stimuli/images/food_processor_12s.jpg,0.0,0.0,True,j,False,1.0,0.0,0.8
episodic_choice_v3,699ca75f99675d449c667b41,True,,302.0,j,,,202.0,2.0,1.0,mid,188.0,14.0,right,1.0,juicer2_12s.jpg,../../stimuli/images/juicer2_12s.jpg,0.789474,0.0,False,accordion_13s.jpg,../../stimuli/images/accordion_13s.jpg,0.8,1.0,True,left,juicer2_12s.jpg,../../stimuli/images/juicer2_12s.jpg,0.0,0.0,True,j,False,0.0,0.0,0.8
episodic_choice_v3,699ca75f99675d449c667b41,True,,,,,,203.0,2.0,1.0,low,194.0,9.0,right,0.0,punch1_11s.jpg,../../stimuli/images/punch1_11s.jpg,0.571429,1.0,False,pot_04s.jpg,../../stimuli/images/pot_04s.jpg,0.534884,0.0,True,,,,,1.0,True,,True,,,0.8
episodic_choice_v3,699ca75f99675d449c667b41,True,,409.0,j,,,204.0,2.0,0.0,high,,,,,calf2_03s.jpg,../../stimuli/images/calf2_03s.jpg,0.976744,0.0,False,hula_hoop_15s.jpg,../../stimuli/images/hula_hoop_15s.jpg,0.97561,0.0,False,left,calf2_03s.jpg,../../stimuli/images/calf2_03s.jpg,0.0,0.0,,j,False,,,0.8
episodic_choice_v3,699ca75f99675d449c667b41,True,,538.0,j,,,205.0,2.0,1.0,low,190.0,15.0,left,0.0,bone_09s.jpg,../../stimuli/images/bone_09s.jpg,0.642857,0.0,True,hubcap_12s.jpg,../../stimuli/images/hubcap_12s.jpg,0.444444,0.0,False,left,bone_09s.jpg,../../stimuli/images/bone_09s.jpg,0.0,0.0,True,j,False,1.0,0.0,0.8
episodic_choice_v3,699ca75f99675d449c667b41,True,,369.0,k,,,206.0,2.0,1.0,mid,192.0,14.0,left,0.0,kazoo_07s.jpg,../../stimuli/images/kazoo_07s.jpg,0.794872,0.0,True,lamp_01b.jpg,../../stimuli/images/lamp_01b.jpg,0.795455,1.0,False,right,lamp_01b.jpg,../../stimuli/images/lamp_01b.jpg,1.0,1.0,True,k,False,0.0,1.0,0.8
episodic_choice_v3,699ca75f99675d449c667b41,True,,799.0,j,,,207.0,2.0,0.0,high,,,,,whisk_07s.jpg,../../stimuli/images/whisk_07s.jpg,0.95,1.0,False,trolley_03s.jpg,../../stimuli/images/trolley_03s.jpg,0.926829,1.0,False,left,whisk_07s.jpg,../../stimuli/images/whisk_07s.jpg,1.0,1.0,,j,False,,,0.8
episodic_choice_v3,699ca75f99675d449c667b41,True,,611.0,j,,,208.0,2.0,1.0,low,196.0,12.0,left,0.0,doily_06s.jpg,../../stimuli/images/doily_06s.jpg,0.55,0.0,True,sarcophagus_11s.jpg,../../stimuli/images/sarcophagus_11s.jpg,0.538462,1.0,False,left,doily_06s.jpg,../../stimuli/images/doily_06s.jpg,0.0,0.0,True,j,False,1.0,0.0,0.8
episodic_choice_v3,699ca75f99675d449c667b41,True,,286.0,k,,,209.0,2.0,0.0,high,,,,,turkey_02s.jpg,../../stimuli/images/turkey_02s.jpg,0.926829,1.0,False,rubber_band_04s.jpg,../../stimuli/images/rubber_band_04s.jpg,0.95,1.0,False,right,rubber_band_04s.jpg,../../stimuli/images/rubber_band_04s.jpg,1.0,1.0,,k,False,,,0.8
episodic_choice_v3,699ca75f99675d449c667b41,True,,636.0,j,,,210.0,2.0,1.0,mid,195.0,15.0,right,0.0,gyro_09s.jpg,../../stimuli/images/gyro_09s.jpg,0.795455,1.0,False,whale_10s.jpg,../../stimuli/images/whale_10s.jpg,0.795455,0.0,True,left,gyro_09s.jpg,../../stimuli/images/gyro_09s.jpg,1.0,1.0,True,j,False,0.0,1.0,0.8
episodic_choice_v3,699ca75f99675d449c667b41,True,,1950.0,j,,,211.0,3.0,1.0,high,197.0,14.0,left,1.0,water_heater_06s.jpg,../../stimuli/images/water_heater_06s.jpg,0.95,1.0,True,stove2_12s.jpg,../../stimuli/images/stove2_12s.jpg,0.9,1.0,False,left,water_heater_06s.jpg,../../stimuli/images/water_heater_06s.jpg,1.0,1.0,True,j,False,1.0,1.0,0.8
episodic_choice_v3,699ca75f99675d449c667b41,True,,582.0,j,,,212.0,3.0,0.0,low,,,,,recorder_13s.jpg,../../stimuli/images/recorder_13s.jpg,0.564103,0.0,False,pigeon_10s.jpg,../../stimuli/images/pigeon_10s.jpg,0.487805,0.0,False,left,recorder_13s.jpg,../../stimuli/images/recorder_13s.jpg,0.0,0.0,,j,False,,,0.8
episodic_choice_v3,699ca75f99675d449c667b41,True,,808.0,j,,,213.0,3.0,1.0,mid,198.0,15.0,right,1.0,mallet_11s.jpg,../../stimuli/images/mallet_11s.jpg,0.794872,0.0,False,pie_15s.jpg,../../stimuli/images/pie_15s.jpg,0.794872,1.0,True,left,mallet_11s.jpg,../../stimuli/images/mallet_11s.jpg,0.0,0.0,True,j,False,0.0,0.0,0.8
episodic_choice_v3,699ca75f99675d449c667b41,True,,570.0,k,,,214.0,3.0,0.0,high,,,,,ear_09s.jpg,../../stimuli/images/ear_09s.jpg,0.977273,1.0,False,stained_glass_11s.jpg,../../stimuli/images/stained_glass_11s.jpg,0.925,1.0,False,right,stained_glass_11s.jpg,../../stimuli/images/stained_glass_11s.jpg,1.0,1.0,,k,False,,,0.8
episodic_choice_v3,699ca75f99675d449c667b41,True,,361.0,j,,,215.0,3.0,1.0,mid,200.0,15.0,right,1.0,strainer_12s.jpg,../../stimuli/images/strainer_12s.jpg,0.795455,1.0,False,steering_wheel_08s.jpg,../../stimuli/images/steering_wheel_08s.jpg,0.8,1.0,True,left,strainer_12s.jpg,../../stimuli/images/strainer_12s.jpg,1.0,1.0,True,j,False,0.0,0.0,0.8
episodic_choice_v3,699ca75f99675d449c667b41,True,,530.0,k,,,216.0,3.0,0.0,low,,,,,antelope_07n.jpg,../../stimuli/images/antelope_07n.jpg,0.560976,1.0,False,goose_10s.jpg,../../stimuli/images/goose_10s.jpg,0.525,1.0,False,right,goose_10s.jpg,../../stimuli/images/goose_10s.jpg,1.0,1.0,,k,False,,,0.8
episodic_choice_v3,699ca75f99675d449c667b41,True,,553.0,k,,,217.0,3.0,1.0,high,204.0,13.0,left,0.0,calf2_03s.jpg,../../stimuli/images/calf2_03s.jpg,0.976744,0.0,True,microwave_08s.jpg,../../stimuli/images/microwave_08s.jpg,0.902439,0.0,False,right,microwave_08s.jpg,../../stimuli/images/microwave_08s.jpg,0.0,0.0,True,k,False,0.0,1.0,0.8
episodic_choice_v3,699ca75f99675d449c667b41,True,,1596.0,j,,,218.0,3.0,0.0,low,,,,,cleat_01b.jpg,../../stimuli/images/cleat_01b.jpg,0.487179,1.0,False,earring_02s.jpg,../../stimuli/images/earring_02s.jpg,0.45,1.0,False,left,cleat_01b.jpg,../../stimuli/images/cleat_01b.jpg,1.0,1.0,,j,False,,,0.8
episodic_choice_v3,699ca75f99675d449c667b41,True,,605.0,j,,,219.0,3.0,0.0,mid,,,,,peanut_12s.jpg,../../stimuli/images/peanut_12s.jpg,0.794872,1.0,False,tumbleweed_05s.jpg,../../stimuli/images/tumbleweed_05s.jpg,0.794872,1.0,False,left,peanut_12s.jpg,../../stimuli/images/peanut_12s.jpg,1.0,1.0,,j,False,,,0.8
episodic_choice_v3,699ca75f99675d449c667b41,True,,375.0,k,,,220.0,3.0,0.0,mid,,,,,parrot_18s.jpg,../../stimuli/images/parrot_18s.jpg,0.795513,0.0,False,mango_06s.jpg,../../stimuli/images/mango_06s.jpg,0.794872,0.0,False,right,mango_06s.jpg,../../stimuli/images/mango_06s.jpg,0.0,0.0,,k,False,,,0.8
episodic_choice_v3,699ca75f99675d449c667b41,True,,577.0,j,,,221.0,3.0,1.0,high,207.0,14.0,left,1.0,whisk_07s.jpg,../../stimuli/images/whisk_07s.jpg,0.95,1.0,True,rooster_12s.jpg,../../stimuli/images/rooster_12s.jpg,0.952381,0.0,False,left,whisk_07s.jpg,../../stimuli/images/whisk_07s.jpg,1.0,1.0,True,j,False,1.0,1.0,0.8
episodic_choice_v3,699ca75f99675d449c667b41,True,,917.0,j,,,222.0,3.0,0.0,low,,,,,snowboard_03s.jpg,../../stimuli/images/snowboard_03s.jpg,0.47619,1.0,False,ink_11s.jpg,../../stimuli/images/ink_11s.jpg,0.564103,1.0,False,left,snowboard_03s.jpg,../../stimuli/images/snowboard_03s.jpg,1.0,1.0,,j,False,,,0.8
episodic_choice_v3,699ca75f99675d449c667b41,True,,632.0,k,,,223.0,3.0,1.0,low,212.0,11.0,left,0.0,recorder_13s.jpg,../../stimuli/images/recorder_13s.jpg,0.564103,0.0,True,magnifier_07s.jpg,../../stimuli/images/magnifier_07s.jpg,0.512195,0.0,False,right,magnifier_07s.jpg,../../stimuli/images/magnifier_07s.jpg,0.0,0.0,True,k,False,0.0,1.0,0.8
episodic_choice_v3,699ca75f99675d449c667b41,True,,,,,,224.0,3.0,1.0,high,209.0,15.0,right,1.0,tie_07s.jpg,../../stimuli/images/tie_07s.jpg,0.95122,1.0,False,rubber_band_04s.jpg,../../stimuli/images/rubber_band_04s.jpg,0.95,1.0,True,,,,,1.0,True,,True,,,0.8
episodic_choice_v3,699ca75f99675d449c667b41,True,,1433.0,j,,,225.0,3.0,0.0,mid,,,,,beer_11s.jpg,../../stimuli/images/beer_11s.jpg,0.8,1.0,False,roadsweeper_10s.jpg,../../stimuli/images/roadsweeper_10s.jpg,0.795455,1.0,False,left,beer_11s.jpg,../../stimuli/images/beer_11s.jpg,1.0,1.0,,j,False,,,0.8
episodic_choice_v3,699ca75f99675d449c667b41,True,,988.0,k,,,226.0,3.0,0.0,high,,,,,trumpet_02s.jpg,../../stimuli/images/trumpet_02s.jpg,0.92561,0.0,False,refrigerator_07s.jpg,../../stimuli/images/refrigerator_07s.jpg,0.928571,0.0,False,right,refrigerator_07s.jpg,../../stimuli/images/refrigerator_07s.jpg,0.0,0.0,,k,False,,,0.8
episodic_choice_v3,699ca75f99675d449c667b41,True,,420.0,j,,,227.0,3.0,1.0,low,216.0,11.0,left,1.0,goose_10s.jpg,../../stimuli/images/goose_10s.jpg,0.525,1.0,True,eggbeater_10s.jpg,../../stimuli/images/eggbeater_10s.jpg,0.6,0.0,False,left,goose_10s.jpg,../../stimuli/images/goose_10s.jpg,1.0,1.0,True,j,False,1.0,1.0,0.8
episodic_choice_v3,699ca75f99675d449c667b41,True,,485.0,j,,,228.0,3.0,0.0,mid,,,,,jumpsuit_13s.jpg,../../stimuli/images/jumpsuit_13s.jpg,0.795455,1.0,False,scallion_08s.jpg,../../stimuli/images/scallion_08s.jpg,0.794872,1.0,False,left,jumpsuit_13s.jpg,../../stimuli/images/jumpsuit_13s.jpg,1.0,1.0,,j,False,,,0.8
episodic_choice_v3,699ca75f99675d449c667b41,True,,419.0,k,,,229.0,3.0,1.0,high,214.0,15.0,right,1.0,bullet_02s.jpg,../../stimuli/images/bullet_02s.jpg,0.95,1.0,False,stained_glass_11s.jpg,../../stimuli/images/stained_glass_11s.jpg,0.925,1.0,True,right,stained_glass_11s.jpg,../../stimuli/images/stained_glass_11s.jpg,1.0,1.0,True,k,False,1.0,1.0,0.8
episodic_choice_v3,699ca75f99675d449c667b41,True,,321.0,j,,,230.0,3.0,1.0,mid,220.0,10.0,right,0.0,flamingo_07s.jpg,../../stimuli/images/flamingo_07s.jpg,0.794872,0.0,False,mango_06s.jpg,../../stimuli/images/mango_06s.jpg,0.794872,0.0,True,left,flamingo_07s.jpg,../../stimuli/images/flamingo_07s.jpg,0.0,0.0,True,j,False,0.0,1.0,0.8
episodic_choice_v3,699ca75f99675d449c667b41,True,,761.0,j,,,231.0,3.0,1.0,low,218.0,13.0,left,1.0,cleat_01b.jpg,../../stimuli/images/cleat_01b.jpg,0.487179,1.0,True,windshield_07s.jpg,../../stimuli/images/windshield_07s.jpg,0.435897,1.0,False,left,cleat_01b.jpg,../../stimuli/images/cleat_01b.jpg,1.0,1.0,True,j,False,1.0,1.0,0.8
episodic_choice_v3,699ca75f99675d449c667b41,True,,1406.0,j,,,232.0,3.0,1.0,mid,219.0,13.0,left,1.0,peanut_12s.jpg,../../stimuli/images/peanut_12s.jpg,0.794872,1.0,True,envelope_01b.jpg,../../stimuli/images/envelope_01b.jpg,0.794872,1.0,False,left,peanut_12s.jpg,../../stimuli/images/peanut_12s.jpg,1.0,1.0,True,j,False,1.0,1.0,0.8
episodic_choice_v3,699ca75f99675d449c667b41,True,,1104.0,j,,,233.0,3.0,0.0,high,,,,,scoop_07s.jpg,../../stimuli/images/scoop_07s.jpg,0.95,0.0,False,dumbbell_12s.jpg,../../stimuli/images/dumbbell_12s.jpg,0.948718,0.0,False,left,scoop_07s.jpg,../../stimuli/images/scoop_07s.jpg,0.0,0.0,,j,False,,,0.8
episodic_choice_v3,699ca75f99675d449c667b41,True,,,,,,234.0,3.0,1.0,low,222.0,12.0,right,1.0,seafood_06s.jpg,../../stimuli/images/seafood_06s.jpg,0.512821,0.0,False,snowboard_03s.jpg,../../stimuli/images/snowboard_03s.jpg,0.47619,1.0,True,,,,,0.0,True,,True,,,0.8
episodic_choice_v3,699ca75f99675d449c667b41,True,,351.0,k,,,235.0,3.0,1.0,high,226.0,9.0,right,0.0,chive_03s.jpg,../../stimuli/images/chive_03s.jpg,0.926829,0.0,False,refrigerator_07s.jpg,../../stimuli/images/refrigerator_07s.jpg,0.928571,0.0,True,right,refrigerator_07s.jpg,../../stimuli/images/refrigerator_07s.jpg,0.0,0.0,True,k,False,1.0,0.0,0.8
episodic_choice_v3,699ca75f99675d449c667b41,True,,301.0,j,,,236.0,3.0,0.0,low,,,,,ladder_14s.jpg,../../stimuli/images/ladder_14s.jpg,0.560976,0.0,False,album_09s.jpg,../../stimuli/images/album_09s.jpg,0.45,0.0,False,left,ladder_14s.jpg,../../stimuli/images/ladder_14s.jpg,0.0,0.0,,j,False,,,0.8
episodic_choice_v3,699ca75f99675d449c667b41,True,,313.0,k,,,237.0,3.0,0.0,mid,,,,,coffeemaker_12s.jpg,../../stimuli/images/coffeemaker_12s.jpg,0.804878,0.0,False,container_05s.jpg,../../stimuli/images/container_05s.jpg,0.794872,0.0,False,right,container_05s.jpg,../../stimuli/images/container_05s.jpg,0.0,0.0,,k,False,,,0.8
episodic_choice_v3,699ca75f99675d449c667b41,True,,343.0,j,,,238.0,3.0,0.0,high,,,,,bag_10s.jpg,../../stimuli/images/bag_10s.jpg,0.95,0.0,False,giraffe_06s.jpg,../../stimuli/images/giraffe_06s.jpg,1.0,0.0,False,left,bag_10s.jpg,../../stimuli/images/bag_10s.jpg,0.0,0.0,,j,False,,,0.8
episodic_choice_v3,699ca75f99675d449c667b41,True,,465.0,j,,,239.0,3.0,1.0,mid,225.0,14.0,left,1.0,beer_11s.jpg,../../stimuli/images/beer_11s.jpg,0.8,1.0,True,muffin_11n.jpg,../../stimuli/images/muffin_11n.jpg,0.794872,0.0,False,left,beer_11s.jpg,../../stimuli/images/beer_11s.jpg,1.0,1.0,True,j,False,1.0,1.0,0.8
episodic_choice_v3,699ca75f99675d449c667b41,True,,370.0,j,,,240.0,3.0,0.0,low,,,,,cooker_13s.jpg,../../stimuli/images/cooker_13s.jpg,0.525,0.0,False,tank1_02s.jpg,../../stimuli/images/tank1_02s.jpg,0.447368,0.0,False,left,cooker_13s.jpg,../../stimuli/images/cooker_13s.jpg,0.0,0.0,,j,False,,,0.8
episodic_choice_v3,699ca75f99675d449c667b41,True,,491.0,k,,,241.0,3.0,1.0,mid,228.0,13.0,left,1.0,jumpsuit_13s.jpg,../../stimuli/images/jumpsuit_13s.jpg,0.795455,1.0,True,tostada_13s.jpg,../../stimuli/images/tostada_13s.jpg,0.795455,1.0,False,right,tostada_13s.jpg,../../stimuli/images/tostada_13s.jpg,1.0,1.0,True,k,False,0.0,0.0,0.8
episodic_choice_v3,699ca75f99675d449c667b41,True,,347.0,j,,,242.0,3.0,1.0,high,233.0,9.0,right,0.0,crow_15s.jpg,../../stimuli/images/crow_15s.jpg,0.926829,1.0,False,scoop_07s.jpg,../../stimuli/images/scoop_07s.jpg,0.95,0.0,True,left,crow_15s.jpg,../../stimuli/images/crow_15s.jpg,1.0,1.0,True,j,False,0.0,1.0,0.8
episodic_choice_v3,699ca75f99675d449c667b41,True,,274.0,j,,,243.0,3.0,1.0,low,236.0,7.0,left,0.0,ladder_14s.jpg,../../stimuli/images/ladder_14s.jpg,0.560976,0.0,True,top_hat_04s.jpg,../../stimuli/images/top_hat_04s.jpg,0.6,0.0,False,left,ladder_14s.jpg,../../stimuli/images/ladder_14s.jpg,0.0,0.0,True,j,False,1.0,0.0,0.8
episodic_choice_v3,699ca75f99675d449c667b41,True,,278.0,j,,,244.0,3.0,1.0,mid,237.0,7.0,left,0.0,container_05s.jpg,../../stimuli/images/container_05s.jpg,0.794872,0.0,True,plum_07n.jpg,../../stimuli/images/plum_07n.jpg,0.794872,0.0,False,left,container_05s.jpg,../../stimuli/images/container_05s.jpg,0.0,0.0,True,j,False,1.0,0.0,0.8
episodic_choice_v3,699ca75f99675d449c667b41,True,,1216.0,k,,,245.0,3.0,1.0,high,238.0,7.0,left,0.0,bag_10s.jpg,../../stimuli/images/bag_10s.jpg,0.95,0.0,True,hot_tub_03s.jpg,../../stimuli/images/hot_tub_03s.jpg,0.949359,1.0,False,right,hot_tub_03s.jpg,../../stimuli/images/hot_tub_03s.jpg,1.0,1.0,True,k,False,0.0,1.0,0.8
episodic_choice_v3,699ca75f99675d449c667b41,True,,884.0,j,,,246.0,3.0,0.0,low,,,,,watering_can_05s.jpg,../../stimuli/images/watering_can_05s.jpg,0.575,0.0,False,vegetable_07s.jpg,../../stimuli/images/vegetable_07s.jpg,0.634146,0.0,False,left,watering_can_05s.jpg,../../stimuli/images/watering_can_05s.jpg,0.0,0.0,,j,False,,,0.8
episodic_choice_v3,699ca75f99675d449c667b41,True,,420.0,k,,,247.0,3.0,0.0,mid,,,,,eggplant_05n.jpg,../../stimuli/images/eggplant_05n.jpg,0.794872,1.0,False,ladle_11s.jpg,../../stimuli/images/ladle_11s.jpg,0.794872,1.0,False,right,ladle_11s.jpg,../../stimuli/images/ladle_11s.jpg,1.0,1.0,,k,False,,,0.8
episodic_choice_v3,699ca75f99675d449c667b41,True,,,,,,248.0,3.0,0.0,high,,,,,lego_05s.jpg,../../stimuli/images/lego_05s.jpg,0.952381,0.0,False,shopping_cart_15s.jpg,../../stimuli/images/shopping_cart_15s.jpg,0.948718,0.0,False,,,,,0.0,,,True,,,0.8
episodic_choice_v3,699ca75f99675d449c667b41,True,,140.0,k,,,249.0,3.0,0.0,low,,,,,coat_rack_10s.jpg,../../stimuli/images/coat_rack_10s.jpg,0.55,0.0,False,toaster_oven_05s.jpg,../../stimuli/images/toaster_oven_05s.jpg,0.578947,0.0,False,right,toaster_oven_05s.jpg,../../stimuli/images/toaster_oven_05s.jpg,0.0,0.0,,k,False,,,0.8
episodic_choice_v3,699ca75f99675d449c667b41,True,,,,,,250.0,3.0,1.0,low,240.0,10.0,right,0.0,goblet_06s.jpg,../../stimuli/images/goblet_06s.jpg,0.547619,1.0,False,cooker_13s.jpg,../../stimuli/images/cooker_13s.jpg,0.525,0.0,True,,,,,1.0,True,,True,,,0.8
episodic_choice_v3,699ca75f99675d449c667b41,True,,635.0,j,,,251.0,3.0,0.0,high,,,,,metal_detector_11s.jpg,../../stimuli/images/metal_detector_11s.jpg,0.928571,1.0,False,footbath_01s.jpg,../../stimuli/images/footbath_01s.jpg,0.97561,1.0,False,left,metal_detector_11s.jpg,../../stimuli/images/metal_detector_11s.jpg,1.0,1.0,,j,False,,,0.8
episodic_choice_v3,699ca75f99675d449c667b41,True,,475.0,k,,,252.0,3.0,0.0,mid,,,,,closet_03s.jpg,../../stimuli/images/closet_03s.jpg,0.794872,1.0,False,soda_11s.jpg,../../stimuli/images/soda_11s.jpg,0.8,1.0,False,right,soda_11s.jpg,../../stimuli/images/soda_11s.jpg,1.0,1.0,,k,False,,,0.8
episodic_choice_v3,699ca75f99675d449c667b41,True,,348.0,j,,,253.0,3.0,0.0,mid,,,,,clothes_12s.jpg,../../stimuli/images/clothes_12s.jpg,0.794872,0.0,False,stethoscope_11s.jpg,../../stimuli/images/stethoscope_11s.jpg,0.8,0.0,False,left,clothes_12s.jpg,../../stimuli/images/clothes_12s.jpg,0.0,0.0,,j,False,,,0.8
episodic_choice_v3,699ca75f99675d449c667b41,True,,609.0,k,,,254.0,3.0,0.0,low,,,,,tablet_05s.jpg,../../stimuli/images/tablet_05s.jpg,0.512821,0.0,False,dough_14s.jpg,../../stimuli/images/dough_14s.jpg,0.526316,0.0,False,right,dough_14s.jpg,../../stimuli/images/dough_14s.jpg,0.0,0.0,,k,False,,,0.8
episodic_choice_v3,699ca75f99675d449c667b41,True,,402.0,j,,,255.0,3.0,0.0,high,,,,,mustache_13s.jpg,../../stimuli/images/mustache_13s.jpg,0.976744,0.0,False,tack_03s.jpg,../../stimuli/images/tack_03s.jpg,0.976744,0.0,False,left,mustache_13s.jpg,../../stimuli/images/mustache_13s.jpg,0.0,0.0,,j,False,,,0.8
episodic_choice_v3,699ca75f99675d449c667b41,True,,702.0,k,,,256.0,3.0,0.0,high,,,,,mixer_07s.jpg,../../stimuli/images/mixer_07s.jpg,0.95,1.0,False,revolver_09s.jpg,../../stimuli/images/revolver_09s.jpg,0.953488,1.0,False,right,revolver_09s.jpg,../../stimuli/images/revolver_09s.jpg,1.0,1.0,,k,False,,,0.8
episodic_choice_v3,699ca75f99675d449c667b41,True,,636.0,j,,,257.0,3.0,0.0,low,,,,,champagne_05s.jpg,../../stimuli/images/champagne_05s.jpg,0.55,1.0,False,duck_03s.jpg,../../stimuli/images/duck_03s.jpg,0.536585,1.0,False,left,champagne_05s.jpg,../../stimuli/images/champagne_05s.jpg,1.0,1.0,,j,False,,,0.8
episodic_choice_v3,699ca75f99675d449c667b41,True,,706.0,j,,,258.0,3.0,1.0,mid,247.0,11.0,right,1.0,nacho_14n.jpg,../../stimuli/images/nacho_14n.jpg,0.795455,0.0,False,ladle_11s.jpg,../../stimuli/images/ladle_11s.jpg,0.794872,1.0,True,left,nacho_14n.jpg,../../stimuli/images/nacho_14n.jpg,0.0,0.0,True,j,False,0.0,0.0,0.8
episodic_choice_v3,699ca75f99675d449c667b41,True,,506.0,j,,,259.0,3.0,1.0,mid,252.0,7.0,right,1.0,penguin_05s.jpg,../../stimuli/images/penguin_05s.jpg,0.794872,1.0,False,soda_11s.jpg,../../stimuli/images/soda_11s.jpg,0.8,1.0,True,left,penguin_05s.jpg,../../stimuli/images/penguin_05s.jpg,1.0,1.0,True,j,False,0.0,0.0,0.8
episodic_choice_v3,699ca75f99675d449c667b41,True,,275.0,j,,,260.0,3.0,1.0,high,248.0,12.0,left,0.0,lego_05s.jpg,../../stimuli/images/lego_05s.jpg,0.952381,0.0,True,tool_02s.jpg,../../stimuli/images/tool_02s.jpg,0.954545,0.0,False,left,lego_05s.jpg,../../stimuli/images/lego_05s.jpg,0.0,0.0,True,j,False,1.0,0.0,0.8
episodic_choice_v3,699ca75f99675d449c667b41,True,,954.0,j,,,261.0,3.0,1.0,low,246.0,15.0,right,0.0,sombrero_02s.jpg,../../stimuli/images/sombrero_02s.jpg,0.589744,0.0,False,watering_can_05s.jpg,../../stimuli/images/watering_can_05s.jpg,0.575,0.0,True,left,sombrero_02s.jpg,../../stimuli/images/sombrero_02s.jpg,0.0,0.0,True,j,False,0.0,1.0,0.8
episodic_choice_v3,699ca75f99675d449c667b41,True,,297.0,j,,,262.0,3.0,1.0,mid,253.0,9.0,left,0.0,clothes_12s.jpg,../../stimuli/images/clothes_12s.jpg,0.794872,0.0,True,staple_02s.jpg,../../stimuli/images/staple_02s.jpg,0.8,0.0,False,left,clothes_12s.jpg,../../stimuli/images/clothes_12s.jpg,0.0,0.0,True,j,False,1.0,0.0,0.8
episodic_choice_v3,699ca75f99675d449c667b41,True,,,,,,263.0,3.0,1.0,low,249.0,14.0,right,0.0,fondue_14s.jpg,../../stimuli/images/fondue_14s.jpg,0.526316,1.0,False,toaster_oven_05s.jpg,../../stimuli/images/toaster_oven_05s.jpg,0.578947,0.0,True,,,,,1.0,True,,True,,,0.8
episodic_choice_v3,699ca75f99675d449c667b41,True,,238.0,k,,,264.0,3.0,1.0,high,251.0,13.0,right,1.0,cummerbund_14s.jpg,../../stimuli/images/cummerbund_14s.jpg,0.975,0.0,False,metal_detector_11s.jpg,../../stimuli/images/metal_detector_11s.jpg,0.928571,1.0,True,right,metal_detector_11s.jpg,../../stimuli/images/metal_detector_11s.jpg,1.0,1.0,True,k,False,1.0,1.0,0.8
episodic_choice_v3,699ca75f99675d449c667b41,True,,384.0,j,,,265.0,3.0,0.0,mid,,,,,windshield_wiper_08s.jpg,../../stimuli/images/windshield_wiper_08s.jpg,0.794872,0.0,False,folder_04s.jpg,../../stimuli/images/folder_04s.jpg,0.794872,0.0,False,left,windshield_wiper_08s.jpg,../../stimuli/images/windshield_wiper_08s.jpg,0.0,0.0,,j,False,,,0.8
episodic_choice_v3,699ca75f99675d449c667b41,True,,596.0,k,,,266.0,3.0,1.0,low,254.0,12.0,left,0.0,dough_14s.jpg,../../stimuli/images/dough_14s.jpg,0.526316,0.0,True,chariot_08s.jpg,../../stimuli/images/chariot_08s.jpg,0.525,1.0,False,right,chariot_08s.jpg,../../stimuli/images/chariot_08s.jpg,1.0,1.0,True,k,False,0.0,1.0,0.8
episodic_choice_v3,699ca75f99675d449c667b41,True,,746.0,j,,,267.0,3.0,1.0,high,256.0,11.0,right,1.0,berry_02s.jpg,../../stimuli/images/berry_02s.jpg,0.952381,1.0,False,revolver_09s.jpg,../../stimuli/images/revolver_09s.jpg,0.953488,1.0,True,left,berry_02s.jpg,../../stimuli/images/berry_02s.jpg,1.0,1.0,True,j,False,0.0,0.0,0.8
episodic_choice_v3,699ca75f99675d449c667b41,True,,782.0,j,,,268.0,3.0,1.0,high,255.0,13.0,right,0.0,plaster_cast_02s.jpg,../../stimuli/images/plaster_cast_02s.jpg,1.0,1.0,False,mustache_13s.jpg,../../stimuli/images/mustache_13s.jpg,0.976744,0.0,True,left,plaster_cast_02s.jpg,../../stimuli/images/plaster_cast_02s.jpg,1.0,1.0,True,j,False,0.0,1.0,0.8
episodic_choice_v3,699ca75f99675d449c667b41,True,,455.0,k,,,269.0,3.0,0.0,mid,,,,,brussels_sprouts_02s.jpg,../../stimuli/images/brussels_sprouts_02s.jpg,0.794872,1.0,False,submarine_12s.jpg,../../stimuli/images/submarine_12s.jpg,0.795455,1.0,False,right,submarine_12s.jpg,../../stimuli/images/submarine_12s.jpg,1.0,1.0,,k,False,,,0.8
episodic_choice_v3,699ca75f99675d449c667b41,True,,1938.0,k,,,270.0,3.0,1.0,low,257.0,13.0,right,1.0,sailboat_10s.jpg,../../stimuli/images/sailboat_10s.jpg,0.473684,0.0,False,champagne_05s.jpg,../../stimuli/images/champagne_05s.jpg,0.55,1.0,True,right,champagne_05s.jpg,../../stimuli/images/champagne_05s.jpg,1.0,1.0,True,k,False,1.0,1.0,0.8
episodic_choice_v3,699ca75f99675d449c667b41,True,,850.0,j,,,271.0,3.0,0.0,mid,,,,,patch_14s.jpg,../../stimuli/images/patch_14s.jpg,0.795455,1.0,False,arrow_01b.jpg,../../stimuli/images/arrow_01b.jpg,0.794872,1.0,False,left,patch_14s.jpg,../../stimuli/images/patch_14s.jpg,1.0,1.0,,j,False,,,0.8
episodic_choice_v3,699ca75f99675d449c667b41,True,,1823.0,j,,,272.0,3.0,0.0,high,,,,,mouthpiece_02s.jpg,../../stimuli/images/mouthpiece_02s.jpg,0.97561,1.0,False,violin_01b.jpg,../../stimuli/images/violin_01b.jpg,0.947368,1.0,False,left,mouthpiece_02s.jpg,../../stimuli/images/mouthpiece_02s.jpg,1.0,1.0,,j,False,,,0.8
episodic_choice_v3,699ca75f99675d449c667b41,True,,487.0,j,,,273.0,3.0,0.0,low,,,,,orange_10s.jpg,../../stimuli/images/orange_10s.jpg,0.536585,1.0,False,bobsled_15n.jpg,../../stimuli/images/bobsled_15n.jpg,0.534884,1.0,False,left,orange_10s.jpg,../../stimuli/images/orange_10s.jpg,1.0,1.0,,j,False,,,0.8
episodic_choice_v3,699ca75f99675d449c667b41,True,,,,,,274.0,3.0,0.0,low,,,,,chest2_04s.jpg,../../stimuli/images/chest2_04s.jpg,0.52381,1.0,False,robot_05s.jpg,../../stimuli/images/robot_05s.jpg,0.608696,1.0,False,,,,,1.0,,,True,,,0.8
episodic_choice_v3,699ca75f99675d449c667b41,True,,1450.0,j,,,275.0,3.0,0.0,high,,,,,wallet_08s.jpg,../../stimuli/images/wallet_08s.jpg,0.948718,0.0,False,hip_04s.jpg,../../stimuli/images/hip_04s.jpg,0.952381,0.0,False,left,wallet_08s.jpg,../../stimuli/images/wallet_08s.jpg,0.0,0.0,,j,False,,,0.8
episodic_choice_v3,699ca75f99675d449c667b41,True,,797.0,j,,,276.0,3.0,1.0,mid,269.0,7.0,left,1.0,submarine_12s.jpg,../../stimuli/images/submarine_12s.jpg,0.795455,1.0,True,loveseat_06s.jpg,../../stimuli/images/loveseat_06s.jpg,0.794872,1.0,False,left,submarine_12s.jpg,../../stimuli/images/submarine_12s.jpg,1.0,1.0,True,j,False,1.0,1.0,0.8
episodic_choice_v3,699ca75f99675d449c667b41,True,,150.0,k,,,277.0,3.0,1.0,mid,265.0,12.0,right,0.0,couch_01b.jpg,../../stimuli/images/couch_01b.jpg,0.794872,1.0,False,windshield_wiper_08s.jpg,../../stimuli/images/windshield_wiper_08s.jpg,0.794872,0.0,True,right,windshield_wiper_08s.jpg,../../stimuli/images/windshield_wiper_08s.jpg,0.0,0.0,True,k,False,1.0,0.0,0.8
episodic_choice_v3,699ca75f99675d449c667b41,True,,835.0,j,,,278.0,3.0,0.0,low,,,,,cheese_01b.jpg,../../stimuli/images/cheese_01b.jpg,0.575,0.0,False,vest_13s.jpg,../../stimuli/images/vest_13s.jpg,0.560976,0.0,False,left,cheese_01b.jpg,../../stimuli/images/cheese_01b.jpg,0.0,0.0,,j,False,,,0.8
episodic_choice_v3,699ca75f99675d449c667b41,True,,91.0,j,,,279.0,3.0,0.0,high,,,,,sofa_bed_05s.jpg,../../stimuli/images/sofa_bed_05s.jpg,0.95122,1.0,False,popsicle_02s.jpg,../../stimuli/images/popsicle_02s.jpg,0.95122,1.0,False,left,sofa_bed_05s.jpg,../../stimuli/images/sofa_bed_05s.jpg,1.0,1.0,,j,False,,,0.8
episodic_choice_v3,699ca75f99675d449c667b41,True,,757.0,j,,,280.0,3.0,1.0,high,272.0,8.0,left,1.0,mouthpiece_02s.jpg,../../stimuli/images/mouthpiece_02s.jpg,0.97561,1.0,True,latte_08s.jpg,../../stimuli/images/latte_08s.jpg,0.95122,1.0,False,left,mouthpiece_02s.jpg,../../stimuli/images/mouthpiece_02s.jpg,1.0,1.0,True,j,False,1.0,1.0,0.8
episodic_choice_v3,699ca75f99675d449c667b41,True,,,,,,281.0,3.0,0.0,low,,,,,cleaver_08s.jpg,../../stimuli/images/cleaver_08s.jpg,0.641026,0.0,False,bassoon_16s.jpg,../../stimuli/images/bassoon_16s.jpg,0.527778,0.0,False,,,,,0.0,,,True,,,0.8
episodic_choice_v3,699ca75f99675d449c667b41,True,,411.0,j,,,282.0,3.0,0.0,mid,,,,,dresser_14s.jpg,../../stimuli/images/dresser_14s.jpg,0.794872,1.0,False,speedometer_06s.jpg,../../stimuli/images/speedometer_06s.jpg,0.794872,1.0,False,left,dresser_14s.jpg,../../stimuli/images/dresser_14s.jpg,1.0,1.0,,j,False,,,0.8
episodic_choice_v3,699ca75f99675d449c667b41,True,,441.0,k,,,283.0,3.0,1.0,high,275.0,8.0,right,0.0,cash_machine_02s.jpg,../../stimuli/images/cash_machine_02s.jpg,0.952381,1.0,False,wallet_08s.jpg,../../stimuli/images/wallet_08s.jpg,0.948718,0.0,True,right,wallet_08s.jpg,../../stimuli/images/wallet_08s.jpg,0.0,0.0,True,k,False,1.0,0.0,0.8
episodic_choice_v3,699ca75f99675d449c667b41,True,,375.0,j,,,284.0,3.0,1.0,low,274.0,10.0,right,1.0,vulture_02s.jpg,../../stimuli/images/vulture_02s.jpg,0.487179,0.0,False,chest2_04s.jpg,../../stimuli/images/chest2_04s.jpg,0.52381,1.0,True,left,vulture_02s.jpg,../../stimuli/images/vulture_02s.jpg,0.0,0.0,True,j,False,0.0,0.0,0.8
episodic_choice_v3,699ca75f99675d449c667b41,True,,142.0,j,,,285.0,3.0,1.0,mid,271.0,14.0,left,1.0,patch_14s.jpg,../../stimuli/images/patch_14s.jpg,0.795455,1.0,True,buckle_07s.jpg,../../stimuli/images/buckle_07s.jpg,0.794872,0.0,False,left,patch_14s.jpg,../../stimuli/images/patch_14s.jpg,1.0,1.0,True,j,False,1.0,1.0,0.8
episodic_choice_v3,699ca75f99675d449c667b41,True,,271.0,k,,,286.0,3.0,0.0,mid,,,,,ping-pong_table_11s.jpg,../../stimuli/images/ping-pong_table_11s.jpg,0.794872,1.0,False,quad_01b.jpg,../../stimuli/images/quad_01b.jpg,0.795455,1.0,False,right,quad_01b.jpg,../../stimuli/images/quad_01b.jpg,1.0,1.0,,k,False,,,0.8
episodic_choice_v3,699ca75f99675d449c667b41,True,,1444.0,j,,,287.0,3.0,1.0,low,273.0,14.0,right,1.0,shoulder_01b.jpg,../../stimuli/images/shoulder_01b.jpg,0.692308,0.0,False,orange_10s.jpg,../../stimuli/images/orange_10s.jpg,0.536585,1.0,True,left,shoulder_01b.jpg,../../stimuli/images/shoulder_01b.jpg,0.0,0.0,True,j,False,0.0,0.0,0.8
episodic_choice_v3,699ca75f99675d449c667b41,True,,582.0,j,,,288.0,3.0,1.0,high,279.0,9.0,right,1.0,airboat_05s.jpg,../../stimuli/images/airboat_05s.jpg,0.928571,0.0,False,sofa_bed_05s.jpg,../../stimuli/images/sofa_bed_05s.jpg,0.95122,1.0,True,left,airboat_05s.jpg,../../stimuli/images/airboat_05s.jpg,0.0,0.0,True,j,False,0.0,0.0,0.8
episodic_choice_v3,699ca75f99675d449c667b41,True,,511.0,k,,,289.0,3.0,0.0,high,,,,,incubator_11s.jpg,../../stimuli/images/incubator_11s.jpg,0.928571,1.0,False,pig_06s.jpg,../../stimuli/images/pig_06s.jpg,0.97561,1.0,False,right,pig_06s.jpg,../../stimuli/images/pig_06s.jpg,1.0,1.0,,k,False,,,0.8
episodic_choice_v3,699ca75f99675d449c667b41,True,,75.0,j,,,290.0,3.0,1.0,low,278.0,12.0,left,0.0,cheese_01b.jpg,../../stimuli/images/cheese_01b.jpg,0.575,0.0,True,aircraft_carrier_09s.jpg,../../stimuli/images/aircraft_carrier_09s.jpg,0.536585,0.0,False,left,cheese_01b.jpg,../../stimuli/images/cheese_01b.jpg,0.0,0.0,True,j,False,1.0,0.0,0.8
episodic_choice_v3,699ca75f99675d449c667b41,True,,671.0,j,,,291.0,3.0,0.0,mid,,,,,saddle_03s.jpg,../../stimuli/images/saddle_03s.jpg,0.794872,0.0,False,soccer_ball_03s.jpg,../../stimuli/images/soccer_ball_03s.jpg,0.794872,0.0,False,left,saddle_03s.jpg,../../stimuli/images/saddle_03s.jpg,0.0,0.0,,j,False,,,0.8
episodic_choice_v3,699ca75f99675d449c667b41,True,,290.0,k,,,292.0,3.0,0.0,high,,,,,torso_05s.jpg,../../stimuli/images/torso_05s.jpg,1.0,0.0,False,leotard_05s.jpg,../../stimuli/images/leotard_05s.jpg,0.975,0.0,False,right,leotard_05s.jpg,../../stimuli/images/leotard_05s.jpg,0.0,0.0,,k,False,,,0.8
episodic_choice_v3,699ca75f99675d449c667b41,,True,326.0,j,a,False,,,,,,,,,,,,,,,,,,,,,,,,,j,,,,0.8
episodic_choice_v3,699ca75f99675d449c667b41,True,,1104.0,j,,,293.0,3.0,1.0,mid,286.0,7.0,right,1.0,wheelchair_06s.jpg,../../stimuli/images/wheelchair_06s.jpg,0.8,0.0,False,quad_01b.jpg,../../stimuli/images/quad_01b.jpg,0.795455,1.0,True,left,wheelchair_06s.jpg,../../stimuli/images/wheelchair_06s.jpg,0.0,0.0,True,j,False,0.0,0.0,0.8
episodic_choice_v3,699ca75f99675d449c667b41,True,,288.0,j,,,294.0,3.0,1.0,low,281.0,13.0,left,0.0,bassoon_16s.jpg,../../stimuli/images/bassoon_16s.jpg,0.527778,0.0,True,gong_12s.jpg,../../stimuli/images/gong_12s.jpg,0.585366,1.0,False,left,bassoon_16s.jpg,../../stimuli/images/bassoon_16s.jpg,0.0,0.0,True,j,False,1.0,0.0,0.8
episodic_choice_v3,699ca75f99675d449c667b41,True,,437.0,j,,,295.0,3.0,1.0,mid,282.0,13.0,left,1.0,dresser_14s.jpg,../../stimuli/images/dresser_14s.jpg,0.794872,1.0,True,lavender_09s.jpg,../../stimuli/images/lavender_09s.jpg,0.795455,0.0,False,left,dresser_14s.jpg,../../stimuli/images/dresser_14s.jpg,1.0,1.0,True,j,False,1.0,1.0,0.8
episodic_choice_v3,699ca75f99675d449c667b41,True,,583.0,k,,,296.0,3.0,1.0,high,289.0,7.0,left,1.0,pig_06s.jpg,../../stimuli/images/pig_06s.jpg,0.97561,1.0,True,waffle_iron_11s.jpg,../../stimuli/images/waffle_iron_11s.jpg,0.947368,0.0,False,right,waffle_iron_11s.jpg,../../stimuli/images/waffle_iron_11s.jpg,0.0,0.0,True,k,False,0.0,0.0,0.8
episodic_choice_v3,699ca75f99675d449c667b41,True,,,,,,297.0,3.0,0.0,low,,,,,grapefruit_14s.jpg,../../stimuli/images/grapefruit_14s.jpg,0.627907,0.0,False,hair_04s.jpg,../../stimuli/images/hair_04s.jpg,0.684211,0.0,False,,,,,0.0,,,True,,,0.8
episodic_choice_v3,699ca75f99675d449c667b41,True,,471.0,j,,,298.0,3.0,0.0,high,,,,,chickpea_06s.jpg,../../stimuli/images/chickpea_06s.jpg,0.952381,0.0,False,xylophone_11s.jpg,../../stimuli/images/xylophone_11s.jpg,0.928571,0.0,False,left,chickpea_06s.jpg,../../stimuli/images/chickpea_06s.jpg,0.0,0.0,,j,False,,,0.8
episodic_choice_v3,699ca75f99675d449c667b41,True,,314.0,j,,,299.0,3.0,1.0,mid,291.0,8.0,right,0.0,kaleidoscope_11s.jpg,../../stimuli/images/kaleidoscope_11s.jpg,0.794872,0.0,False,saddle_03s.jpg,../../stimuli/images/saddle_03s.jpg,0.794872,0.0,True,left,kaleidoscope_11s.jpg,../../stimuli/images/kaleidoscope_11s.jpg,0.0,0.0,True,j,False,0.0,1.0,0.8
episodic_choice_v3,699ca75f99675d449c667b41,True,,167.0,k,,,300.0,3.0,0.0,low,,,,,wine_14s.jpg,../../stimuli/images/wine_14s.jpg,0.589744,0.0,False,clipboard_09s.jpg,../../stimuli/images/clipboard_09s.jpg,0.5,0.0,False,right,clipboard_09s.jpg,../../stimuli/images/clipboard_09s.jpg,0.0,0.0,,k,False,,,0.8
episodic_choice_v3,699ca75f99675d449c667b41,True,,120.0,j,,,301.0,3.0,0.0,low,,,,,souffle_16s.jpg,../../stimuli/images/souffle_16s.jpg,0.57561,0.0,False,sifter_04s.jpg,../../stimuli/images/sifter_04s.jpg,0.512195,0.0,False,left,souffle_16s.jpg,../../stimuli/images/souffle_16s.jpg,0.0,0.0,,j,False,,,0.8
episodic_choice_v3,699ca75f99675d449c667b41,True,,327.0,k,,,302.0,3.0,0.0,mid,,,,,vending_machine_03s.jpg,../../stimuli/images/vending_machine_03s.jpg,0.794872,0.0,False,wagon_06s.jpg,../../stimuli/images/wagon_06s.jpg,0.795455,0.0,False,right,wagon_06s.jpg,../../stimuli/images/wagon_06s.jpg,0.0,0.0,,k,False,,,0.8
episodic_choice_v3,699ca75f99675d449c667b41,True,,769.0,j,,,303.0,3.0,0.0,high,,,,,dishwasher_06s.jpg,../../stimuli/images/dishwasher_06s.jpg,0.880952,0.0,False,sweet_potato_05s.jpg,../../stimuli/images/sweet_potato_05s.jpg,0.95,0.0,False,left,dishwasher_06s.jpg,../../stimuli/images/dishwasher_06s.jpg,0.0,0.0,,j,False,,,0.8
episodic_choice_v3,699ca75f99675d449c667b41,True,,308.0,j,,,304.0,3.0,0.0,mid,,,,,birdbath_09s.jpg,../../stimuli/images/birdbath_09s.jpg,0.794872,1.0,False,exhaust_pipe_06s.jpg,../../stimuli/images/exhaust_pipe_06s.jpg,0.794872,1.0,False,left,birdbath_09s.jpg,../../stimuli/images/birdbath_09s.jpg,1.0,1.0,,j,False,,,0.8
episodic_choice_v3,699ca75f99675d449c667b41,True,,587.0,j,,,305.0,3.0,1.0,low,297.0,8.0,right,0.0,squid_05s.jpg,../../stimuli/images/squid_05s.jpg,0.536585,1.0,False,grapefruit_14s.jpg,../../stimuli/images/grapefruit_14s.jpg,0.627907,0.0,True,left,squid_05s.jpg,../../stimuli/images/squid_05s.jpg,1.0,1.0,True,j,False,0.0,1.0,0.8
episodic_choice_v3,699ca75f99675d449c667b41,True,,400.0,j,,,306.0,3.0,1.0,high,292.0,14.0,left,0.0,leotard_05s.jpg,../../stimuli/images/leotard_05s.jpg,0.975,0.0,True,tea_02s.jpg,../../stimuli/images/tea_02s.jpg,0.9,0.0,False,left,leotard_05s.jpg,../../stimuli/images/leotard_05s.jpg,0.0,0.0,True,j,False,1.0,0.0,0.8
episodic_choice_v3,699ca75f99675d449c667b41,True,,412.0,k,,,307.0,3.0,1.0,low,300.0,7.0,left,0.0,clipboard_09s.jpg,../../stimuli/images/clipboard_09s.jpg,0.5,0.0,True,workbench_07s.jpg,../../stimuli/images/workbench_07s.jpg,0.547619,0.0,False,right,workbench_07s.jpg,../../stimuli/images/workbench_07s.jpg,0.0,0.0,True,k,False,0.0,1.0,0.8
episodic_choice_v3,699ca75f99675d449c667b41,True,,434.0,j,,,308.0,3.0,1.0,high,298.0,10.0,right,0.0,marker_13s.jpg,../../stimuli/images/marker_13s.jpg,0.97561,1.0,False,chickpea_06s.jpg,../../stimuli/images/chickpea_06s.jpg,0.952381,0.0,True,left,marker_13s.jpg,../../stimuli/images/marker_13s.jpg,1.0,1.0,True,j,False,0.0,1.0,0.8
episodic_choice_v3,699ca75f99675d449c667b41,True,,449.0,j,,,309.0,3.0,1.0,mid,302.0,7.0,left,0.0,wagon_06s.jpg,../../stimuli/images/wagon_06s.jpg,0.795455,0.0,True,dustpan_10s.jpg,../../stimuli/images/dustpan_10s.jpg,0.794872,0.0,False,left,wagon_06s.jpg,../../stimuli/images/wagon_06s.jpg,0.0,0.0,True,j,False,1.0,0.0,0.8
episodic_choice_v3,699ca75f99675d449c667b41,True,,440.0,k,,,310.0,3.0,1.0,high,303.0,7.0,left,0.0,dishwasher_06s.jpg,../../stimuli/images/dishwasher_06s.jpg,0.880952,0.0,True,tarantula_07s.jpg,../../stimuli/images/tarantula_07s.jpg,1.0,1.0,False,right,tarantula_07s.jpg,../../stimuli/images/tarantula_07s.jpg,1.0,1.0,True,k,False,0.0,1.0,0.8
episodic_choice_v3,699ca75f99675d449c667b41,True,,334.0,j,,,311.0,3.0,1.0,mid,304.0,7.0,left,1.0,birdbath_09s.jpg,../../stimuli/images/birdbath_09s.jpg,0.794872,1.0,True,ant_03s.jpg,../../stimuli/images/ant_03s.jpg,0.795455,0.0,False,left,birdbath_09s.jpg,../../stimuli/images/birdbath_09s.jpg,1.0,1.0,True,j,False,1.0,1.0,0.8
episodic_choice_v3,699ca75f99675d449c667b41,True,,853.0,j,,,312.0,3.0,1.0,low,301.0,11.0,right,0.0,baseball_07s.jpg,../../stimuli/images/baseball_07s.jpg,0.525,0.0,False,souffle_16s.jpg,../../stimuli/images/souffle_16s.jpg,0.57561,0.0,True,left,baseball_07s.jpg,../../stimuli/images/baseball_07s.jpg,0.0,0.0,True,j,False,0.0,1.0,0.8
episodic_choice_v3,69ec0815a35d7ad39bb6397a,True,,1797.0,k,,,1.0,1.0,0.0,high,,,,,grenade_06s.jpg,../../stimuli/images/grenade_06s.jpg,0.95122,1.0,False,mixer_07s.jpg,../../stimuli/images/mixer_07s.jpg,0.95,1.0,False,right,mixer_07s.jpg,../../stimuli/images/mixer_07s.jpg,1.0,1.0,,k,False,,,1.0
episodic_choice_v3,69ec0815a35d7ad39bb6397a,True,,1478.0,j,,,2.0,1.0,0.0,low,,,,,orchid_05s.jpg,../../stimuli/images/orchid_05s.jpg,0.461538,1.0,False,bulldozer_06s.jpg,../../stimuli/images/bulldozer_06s.jpg,0.536585,1.0,False,left,orchid_05s.jpg,../../stimuli/images/orchid_05s.jpg,1.0,1.0,,j,False,,,1.0
episodic_choice_v3,69ec0815a35d7ad39bb6397a,True,,1816.0,j,,,3.0,1.0,0.0,mid,,,,,freezer_04s.jpg,../../stimuli/images/freezer_04s.jpg,0.789474,0.0,False,muffin_11n.jpg,../../stimuli/images/muffin_11n.jpg,0.794872,0.0,False,left,freezer_04s.jpg,../../stimuli/images/freezer_04s.jpg,0.0,0.0,,j,False,,,1.0
episodic_choice_v3,69ec0815a35d7ad39bb6397a,True,,1440.0,j,,,4.0,1.0,0.0,mid,,,,,statue_13s.jpg,../../stimuli/images/statue_13s.jpg,0.794872,1.0,False,marijuana_08s.jpg,../../stimuli/images/marijuana_08s.jpg,0.794872,1.0,False,left,statue_13s.jpg,../../stimuli/images/statue_13s.jpg,1.0,1.0,,j,False,,,1.0
